trial_nr	onset	event_type	phase	response	nr_frames	movie_index	movie_duration	movie_file	blank	onset_abs	duration
0	0.20833206176757812	stim	0		787					22.500519037246704	6.559118986129761
0	6.759527921676636	response	0	space						29.05171489715576	
1	6.767451047897339	stim	0		4605					29.059638023376465	38.40016198158264
1	45.13748097419739	pulse	0	t						67.42966794967651	
1	45.16761302947998	stim	1		1716					67.4598000049591	14.29941987991333
1	46.73292088508606	pulse	1	t						69.02510786056519	
1	48.33307504653931	pulse	1	t						70.62526202201843	
1	49.93235993385315	pulse	1	t						72.22454690933228	
1	51.532634019851685	pulse	1	t						73.82482099533081	
1	53.13293099403381	pulse	1	t						75.42511796951294	
1	54.73318696022034	pulse	1	t						77.02537393569946	
1	56.33340787887573	pulse	1	t						78.62559485435486	
1	57.93355584144592	pulse	1	t						80.22574281692505	
2	59.46703290939331	fix_pre	0		9	0.0	2.5	/experiments/knapen_AOT/AOT_stimuli/rescaled_final/1340_fw.mp4	0.0	81.75921988487244	0.07502412796020508
2	59.53387093544006	pulse	0	t		0.0	2.5	/experiments/knapen_AOT/AOT_stimuli/rescaled_final/1340_fw.mp4	0.0	81.82605791091919	
2	59.542057037353516	movie	1		243	0.0	2.5	/experiments/knapen_AOT/AOT_stimuli/rescaled_final/1340_fw.mp4	0.0	81.83424401283264	2.508781909942627
2	61.13477396965027	pulse	1	t		0.0	2.5	/experiments/knapen_AOT/AOT_stimuli/rescaled_final/1340_fw.mp4	0.0	83.4269609451294	
2	62.05083894729614	fix_post	2		12	0.0	2.5	/experiments/knapen_AOT/AOT_stimuli/rescaled_final/1340_fw.mp4	0.0	84.34302592277527	0.0999600887298584
3	62.150799036026	fix_pre	0		120	1.0	2.5	/experiments/knapen_AOT/AOT_stimuli/rescaled_final/0824_fw.mp4	0.0	84.44298601150513	1.000190019607544
3	62.73444604873657	pulse	0	t		1.0	2.5	/experiments/knapen_AOT/AOT_stimuli/rescaled_final/0824_fw.mp4	0.0	85.0266330242157	
3	63.150989055633545	movie	1		244	1.0	2.5	/experiments/knapen_AOT/AOT_stimuli/rescaled_final/0824_fw.mp4	0.0	85.44317603111267	2.5003068447113037
3	64.33470392227173	pulse	1	t		1.0	2.5	/experiments/knapen_AOT/AOT_stimuli/rescaled_final/0824_fw.mp4	0.0	86.62689089775085	
3	65.65129590034485	fix_post	2		12	1.0	2.5	/experiments/knapen_AOT/AOT_stimuli/rescaled_final/0824_fw.mp4	0.0	87.94348287582397	0.1000070571899414
4	65.75130295753479	fix_pre	0		120	2.0	2.5	/experiments/knapen_AOT/AOT_stimuli/rescaled_final/0159_rv.mp4	0.0	88.04348993301392	1.0001330375671387
4	65.93501806259155	pulse	0	t		2.0	2.5	/experiments/knapen_AOT/AOT_stimuli/rescaled_final/0159_rv.mp4	0.0	88.22720503807068	
4	66.75143599510193	movie	1		243	2.0	2.5	/experiments/knapen_AOT/AOT_stimuli/rescaled_final/0159_rv.mp4	0.0	89.04362297058105	2.5003678798675537
4	67.53522086143494	pulse	1	t		2.0	2.5	/experiments/knapen_AOT/AOT_stimuli/rescaled_final/0159_rv.mp4	0.0	89.82740783691406	
4	69.13527488708496	pulse	1	t		2.0	2.5	/experiments/knapen_AOT/AOT_stimuli/rescaled_final/0159_rv.mp4	0.0	91.42746186256409	
4	69.25180387496948	fix_post	2		12	2.0	2.5	/experiments/knapen_AOT/AOT_stimuli/rescaled_final/0159_rv.mp4	0.0	91.54399085044861	0.10003399848937988
5	69.35183787345886	fix_pre	0		120	3.0	2.5	/experiments/knapen_AOT/AOT_stimuli/rescaled_final/0912_fw.mp4	0.0	91.64402484893799	1.0001380443572998
5	70.35197591781616	movie	1		244	3.0	2.5	/experiments/knapen_AOT/AOT_stimuli/rescaled_final/0912_fw.mp4	0.0	92.64416289329529	2.4920339584350586
5	70.7361478805542	pulse	1	t		3.0	2.5	/experiments/knapen_AOT/AOT_stimuli/rescaled_final/0912_fw.mp4	0.0	93.02833485603333	
5	72.33584785461426	pulse	1	t		3.0	2.5	/experiments/knapen_AOT/AOT_stimuli/rescaled_final/0912_fw.mp4	0.0	94.62803483009338	
5	72.84400987625122	fix_post	2		12	3.0	2.5	/experiments/knapen_AOT/AOT_stimuli/rescaled_final/0912_fw.mp4	0.0	95.13619685173035	0.1000211238861084
6	72.94403100013733	fix_pre	0		120	4.0	2.5	/experiments/knapen_AOT/AOT_stimuli/rescaled_final/1020_rv.mp4	0.0	95.23621797561646	1.0002870559692383
6	73.93617105484009	pulse	0	t		4.0	2.5	/experiments/knapen_AOT/AOT_stimuli/rescaled_final/1020_rv.mp4	0.0	96.22835803031921	
6	73.94431805610657	movie	1		246	4.0	2.5	/experiments/knapen_AOT/AOT_stimuli/rescaled_final/1020_rv.mp4	0.0	96.2365050315857	2.5085909366607666
6	75.53683185577393	pulse	1	t		4.0	2.5	/experiments/knapen_AOT/AOT_stimuli/rescaled_final/1020_rv.mp4	0.0	97.82901883125305	
6	76.45290899276733	fix_post	2		12	4.0	2.5	/experiments/knapen_AOT/AOT_stimuli/rescaled_final/1020_rv.mp4	0.0	98.74509596824646	0.10004186630249023
7	76.55295085906982	fix_pre	0		120	5.0	2.5	/experiments/knapen_AOT/AOT_stimuli/rescaled_final/0374_rv.mp4	0.0	98.84513783454895	1.0001451969146729
7	77.13655185699463	pulse	0	t		5.0	2.5	/experiments/knapen_AOT/AOT_stimuli/rescaled_final/0374_rv.mp4	0.0	99.42873883247375	
7	77.5530960559845	movie	1		244	5.0	2.5	/experiments/knapen_AOT/AOT_stimuli/rescaled_final/0374_rv.mp4	0.0	99.84528303146362	2.5003268718719482
7	78.7367959022522	pulse	1	t		5.0	2.5	/experiments/knapen_AOT/AOT_stimuli/rescaled_final/0374_rv.mp4	0.0	101.02898287773132	
7	80.05342292785645	fix_post	2		12	5.0	2.5	/experiments/knapen_AOT/AOT_stimuli/rescaled_final/0374_rv.mp4	0.0	102.34560990333557	0.10002303123474121
8	80.15344595909119	fix_pre	0		120	6.0	2.5	/experiments/knapen_AOT/AOT_stimuli/rescaled_final/0681_rv.mp4	0.0	102.44563293457031	1.0001389980316162
8	80.33710598945618	pulse	0	t		6.0	2.5	/experiments/knapen_AOT/AOT_stimuli/rescaled_final/0681_rv.mp4	0.0	102.6292929649353	
8	81.1535849571228	movie	1		243	6.0	2.5	/experiments/knapen_AOT/AOT_stimuli/rescaled_final/0681_rv.mp4	0.0	103.44577193260193	2.500377893447876
8	81.9373209476471	pulse	1	t		6.0	2.5	/experiments/knapen_AOT/AOT_stimuli/rescaled_final/0681_rv.mp4	0.0	104.22950792312622	
8	83.53740501403809	pulse	1	t		6.0	2.5	/experiments/knapen_AOT/AOT_stimuli/rescaled_final/0681_rv.mp4	0.0	105.82959198951721	
8	83.65396285057068	fix_post	2		12	6.0	2.5	/experiments/knapen_AOT/AOT_stimuli/rescaled_final/0681_rv.mp4	0.0	105.9461498260498	0.1000211238861084
9	83.75398397445679	fix_pre	0		120	7.0	2.5	blank	1.0	106.04617094993591	1.0001919269561768
9	84.75417590141296	movie	1		299	7.0	2.5	blank	1.0	107.04636287689209	2.4920129776000977
9	85.13772892951965	pulse	1	t		7.0	2.5	blank	1.0	107.42991590499878	
9	86.73799586296082	pulse	1	t		7.0	2.5	blank	1.0	109.03018283843994	
9	87.24618887901306	fix_post	2		12	7.0	2.5	blank	1.0	109.53837585449219	0.10001301765441895
10	87.34620189666748	fix_pre	0		120	8.0	2.5	/experiments/knapen_AOT/AOT_stimuli/rescaled_final/1576_fw.mp4	0.0	109.6383888721466	1.000175952911377
10	88.33830904960632	pulse	0	t		8.0	2.5	/experiments/knapen_AOT/AOT_stimuli/rescaled_final/1576_fw.mp4	0.0	110.63049602508545	
10	88.34637784957886	movie	1		245	8.0	2.5	/experiments/knapen_AOT/AOT_stimuli/rescaled_final/1576_fw.mp4	0.0	110.63856482505798	2.5086581707000732
10	89.94270896911621	pulse	1	t		8.0	2.5	/experiments/knapen_AOT/AOT_stimuli/rescaled_final/1576_fw.mp4	0.0	112.23489594459534	
10	90.85503602027893	fix_post	2		12	8.0	2.5	/experiments/knapen_AOT/AOT_stimuli/rescaled_final/1576_fw.mp4	0.0	113.14722299575806	0.10009098052978516
11	90.95512700080872	fix_pre	0		120	9.0	2.5	/experiments/knapen_AOT/AOT_stimuli/rescaled_final/0875_rv.mp4	0.0	113.24731397628784	1.0000660419464111
11	91.53863906860352	pulse	0	t		9.0	2.5	/experiments/knapen_AOT/AOT_stimuli/rescaled_final/0875_rv.mp4	0.0	113.83082604408264	
11	91.95519304275513	movie	1		243	9.0	2.5	/experiments/knapen_AOT/AOT_stimuli/rescaled_final/0875_rv.mp4	0.0	114.24738001823425	2.500370979309082
11	93.13904285430908	pulse	1	t		9.0	2.5	/experiments/knapen_AOT/AOT_stimuli/rescaled_final/0875_rv.mp4	0.0	115.43122982978821	
11	94.45556402206421	fix_post	2		12	9.0	2.5	/experiments/knapen_AOT/AOT_stimuli/rescaled_final/0875_rv.mp4	0.0	116.74775099754333	0.10006284713745117
12	94.55562686920166	fix_pre	0		120	10.0	2.5	/experiments/knapen_AOT/AOT_stimuli/rescaled_final/1184_rv.mp4	0.0	116.84781384468079	1.0001611709594727
12	94.73927688598633	pulse	0	t		10.0	2.5	/experiments/knapen_AOT/AOT_stimuli/rescaled_final/1184_rv.mp4	0.0	117.03146386146545	
12	95.55578804016113	movie	1		244	10.0	2.5	/experiments/knapen_AOT/AOT_stimuli/rescaled_final/1184_rv.mp4	0.0	117.84797501564026	2.5003509521484375
12	96.33198690414429	pulse	1	t		10.0	2.5	/experiments/knapen_AOT/AOT_stimuli/rescaled_final/1184_rv.mp4	0.0	118.62417387962341	
12	97.93963098526001	pulse	1	t		10.0	2.5	/experiments/knapen_AOT/AOT_stimuli/rescaled_final/1184_rv.mp4	0.0	120.23181796073914	
12	98.05613899230957	fix_post	2		12	10.0	2.5	/experiments/knapen_AOT/AOT_stimuli/rescaled_final/1184_rv.mp4	0.0	120.3483259677887	0.10003995895385742
13	98.15617895126343	fix_pre	0		120	11.0	2.5	/experiments/knapen_AOT/AOT_stimuli/rescaled_final/1496_rv.mp4	0.0	120.44836592674255	1.0001509189605713
13	99.156329870224	movie	1		244	11.0	2.5	/experiments/knapen_AOT/AOT_stimuli/rescaled_final/1496_rv.mp4	0.0	121.44851684570312	2.492033004760742
13	99.5403699874878	pulse	1	t		11.0	2.5	/experiments/knapen_AOT/AOT_stimuli/rescaled_final/1496_rv.mp4	0.0	121.83255696296692	
13	101.13280487060547	pulse	1	t		11.0	2.5	/experiments/knapen_AOT/AOT_stimuli/rescaled_final/1496_rv.mp4	0.0	123.4249918460846	
13	101.64836287498474	fix_post	2		10	11.0	2.5	/experiments/knapen_AOT/AOT_stimuli/rescaled_final/1496_rv.mp4	0.0	123.94054985046387	0.10000205039978027
14	101.74836492538452	fix_pre	0		119	12.0	2.5	/experiments/knapen_AOT/AOT_stimuli/rescaled_final/0960_rv.mp4	0.0	124.04055190086365	0.9918570518493652
14	102.73205900192261	pulse	0	t		12.0	2.5	/experiments/knapen_AOT/AOT_stimuli/rescaled_final/0960_rv.mp4	0.0	125.02424597740173	
14	102.74022197723389	movie	1		244	12.0	2.5	/experiments/knapen_AOT/AOT_stimuli/rescaled_final/0960_rv.mp4	0.0	125.03240895271301	2.5087170600891113
14	104.33276104927063	pulse	1	t		12.0	2.5	/experiments/knapen_AOT/AOT_stimuli/rescaled_final/0960_rv.mp4	0.0	126.62494802474976	
14	105.248939037323	fix_post	2		12	12.0	2.5	/experiments/knapen_AOT/AOT_stimuli/rescaled_final/0960_rv.mp4	0.0	127.54112601280212	0.09992194175720215
15	105.3488609790802	fix_pre	0		120	13.0	2.5	/experiments/knapen_AOT/AOT_stimuli/rescaled_final/0751_fw.mp4	0.0	127.64104795455933	1.0002210140228271
15	105.9324848651886	pulse	0	t		13.0	2.5	/experiments/knapen_AOT/AOT_stimuli/rescaled_final/0751_fw.mp4	0.0	128.22467184066772	
15	106.34908199310303	movie	1		246	13.0	2.5	/experiments/knapen_AOT/AOT_stimuli/rescaled_final/0751_fw.mp4	0.0	128.64126896858215	2.500321865081787
15	107.53275489807129	pulse	1	t		13.0	2.5	/experiments/knapen_AOT/AOT_stimuli/rescaled_final/0751_fw.mp4	0.0	129.82494187355042	
15	108.84940385818481	fix_post	2		12	13.0	2.5	/experiments/knapen_AOT/AOT_stimuli/rescaled_final/0751_fw.mp4	0.0	131.14159083366394	0.10001111030578613
16	108.9494149684906	fix_pre	0		120	14.0	2.5	blank	1.0	131.24160194396973	1.0001749992370605
16	109.13305687904358	pulse	0	t		14.0	2.5	blank	1.0	131.4252438545227	
16	109.94958996772766	movie	1		300	14.0	2.5	blank	1.0	132.2417769432068	2.5003719329833984
16	110.73325395584106	pulse	1	t		14.0	2.5	blank	1.0	133.0254409313202	
16	112.33356285095215	pulse	1	t		14.0	2.5	blank	1.0	134.62574982643127	
16	112.44996190071106	fix_post	2		12	14.0	2.5	blank	1.0	134.74214887619019	0.100006103515625
17	112.54996800422668	fix_pre	0		120	15.0	2.5	/experiments/knapen_AOT/AOT_stimuli/rescaled_final/1506_rv.mp4	0.0	134.8421549797058	1.0002009868621826
17	113.55016899108887	movie	1		242	15.0	2.5	/experiments/knapen_AOT/AOT_stimuli/rescaled_final/1506_rv.mp4	0.0	135.842355966568	2.4919838905334473
17	113.93439388275146	pulse	1	t		15.0	2.5	/experiments/knapen_AOT/AOT_stimuli/rescaled_final/1506_rv.mp4	0.0	136.2265808582306	
17	115.53395485877991	pulse	1	t		15.0	2.5	/experiments/knapen_AOT/AOT_stimuli/rescaled_final/1506_rv.mp4	0.0	137.82614183425903	
17	116.04215288162231	fix_post	2		12	15.0	2.5	/experiments/knapen_AOT/AOT_stimuli/rescaled_final/1506_rv.mp4	0.0	138.33433985710144	0.10001897811889648
18	116.14217185974121	fix_pre	0		120	16.0	2.5	/experiments/knapen_AOT/AOT_stimuli/rescaled_final/1317_rv.mp4	0.0	138.43435883522034	1.0001811981201172
18	117.13418698310852	pulse	0	t		16.0	2.5	/experiments/knapen_AOT/AOT_stimuli/rescaled_final/1317_rv.mp4	0.0	139.42637395858765	
18	117.14235305786133	movie	1		245	16.0	2.5	/experiments/knapen_AOT/AOT_stimuli/rescaled_final/1317_rv.mp4	0.0	139.43454003334045	2.508661985397339
18	118.73518204689026	pulse	1	t		16.0	2.5	/experiments/knapen_AOT/AOT_stimuli/rescaled_final/1317_rv.mp4	0.0	141.02736902236938	
18	119.65101504325867	fix_post	2		12	16.0	2.5	/experiments/knapen_AOT/AOT_stimuli/rescaled_final/1317_rv.mp4	0.0	141.9432020187378	0.10006093978881836
19	119.75107598304749	fix_pre	0		120	17.0	2.5	/experiments/knapen_AOT/AOT_stimuli/rescaled_final/0738_fw.mp4	0.0	142.0432629585266	1.0001258850097656
19	120.33467602729797	pulse	0	t		17.0	2.5	/experiments/knapen_AOT/AOT_stimuli/rescaled_final/0738_fw.mp4	0.0	142.6268630027771	
19	120.75120186805725	movie	1		244	17.0	2.5	/experiments/knapen_AOT/AOT_stimuli/rescaled_final/0738_fw.mp4	0.0	143.04338884353638	2.5003440380096436
19	121.93505001068115	pulse	1	t		17.0	2.5	/experiments/knapen_AOT/AOT_stimuli/rescaled_final/0738_fw.mp4	0.0	144.22723698616028	
19	123.2515459060669	fix_post	2		12	17.0	2.5	/experiments/knapen_AOT/AOT_stimuli/rescaled_final/0738_fw.mp4	0.0	145.54373288154602	0.10004115104675293
20	123.35158705711365	fix_pre	0		120	18.0	2.5	/experiments/knapen_AOT/AOT_stimuli/rescaled_final/0013_fw.mp4	0.0	145.64377403259277	1.000154972076416
20	123.53509092330933	pulse	0	t		18.0	2.5	/experiments/knapen_AOT/AOT_stimuli/rescaled_final/0013_fw.mp4	0.0	145.82727789878845	
20	124.35174202919006	movie	1		244	18.0	2.5	/experiments/knapen_AOT/AOT_stimuli/rescaled_final/0013_fw.mp4	0.0	146.6439290046692	2.500335931777954
20	125.13548398017883	pulse	1	t		18.0	2.5	/experiments/knapen_AOT/AOT_stimuli/rescaled_final/0013_fw.mp4	0.0	147.42767095565796	
20	126.73951601982117	pulse	1	t		18.0	2.5	/experiments/knapen_AOT/AOT_stimuli/rescaled_final/0013_fw.mp4	0.0	149.0317029953003	
20	126.85207796096802	fix_post	2		12	18.0	2.5	/experiments/knapen_AOT/AOT_stimuli/rescaled_final/0013_fw.mp4	0.0	149.14426493644714	0.10013794898986816
21	126.95221590995789	fix_pre	0		120	19.0	2.5	/experiments/knapen_AOT/AOT_stimuli/rescaled_final/1037_rv.mp4	0.0	149.244402885437	1.000035047531128
21	127.95225095748901	movie	1		243	19.0	2.5	/experiments/knapen_AOT/AOT_stimuli/rescaled_final/1037_rv.mp4	0.0	150.24443793296814	2.4920589923858643
21	128.33648896217346	pulse	1	t		19.0	2.5	/experiments/knapen_AOT/AOT_stimuli/rescaled_final/1037_rv.mp4	0.0	150.6286759376526	
21	129.93614983558655	pulse	1	t		19.0	2.5	/experiments/knapen_AOT/AOT_stimuli/rescaled_final/1037_rv.mp4	0.0	152.22833681106567	
21	130.44430994987488	fix_post	2		12	19.0	2.5	/experiments/knapen_AOT/AOT_stimuli/rescaled_final/1037_rv.mp4	0.0	152.736496925354	0.10002493858337402
22	130.54433488845825	fix_pre	0		120	20.0	2.5	blank	1.0	152.83652186393738	1.0001220703125
22	131.5363268852234	pulse	0	t		20.0	2.5	blank	1.0	153.82851386070251	
22	131.54445695877075	movie	1		301	20.0	2.5	blank	1.0	153.83664393424988	2.508720874786377
22	133.13658094406128	pulse	1	t		20.0	2.5	blank	1.0	155.4287679195404	
22	134.05317783355713	fix_post	2		12	20.0	2.5	blank	1.0	156.34536480903625	0.10011005401611328
23	134.15328788757324	fix_pre	0		120	21.0	2.5	/experiments/knapen_AOT/AOT_stimuli/rescaled_final/0585_fw.mp4	0.0	156.44547486305237	1.0000970363616943
23	134.73681783676147	pulse	0	t		21.0	2.5	/experiments/knapen_AOT/AOT_stimuli/rescaled_final/0585_fw.mp4	0.0	157.0290048122406	
23	135.15338492393494	movie	1		244	21.0	2.5	/experiments/knapen_AOT/AOT_stimuli/rescaled_final/0585_fw.mp4	0.0	157.44557189941406	2.500347137451172
23	136.33711504936218	pulse	1	t		21.0	2.5	/experiments/knapen_AOT/AOT_stimuli/rescaled_final/0585_fw.mp4	0.0	158.6293020248413	
23	137.6537320613861	fix_post	2		12	21.0	2.5	/experiments/knapen_AOT/AOT_stimuli/rescaled_final/0585_fw.mp4	0.0	159.94591903686523	0.09998583793640137
24	137.7537178993225	fix_pre	0		120	22.0	2.5	/experiments/knapen_AOT/AOT_stimuli/rescaled_final/0491_rv.mp4	0.0	160.04590487480164	1.0001530647277832
24	137.93737602233887	pulse	0	t		22.0	2.5	/experiments/knapen_AOT/AOT_stimuli/rescaled_final/0491_rv.mp4	0.0	160.229562997818	
24	138.7538709640503	movie	1		244	22.0	2.5	/experiments/knapen_AOT/AOT_stimuli/rescaled_final/0491_rv.mp4	0.0	161.04605793952942	2.5003750324249268
24	139.537535905838	pulse	1	t		22.0	2.5	/experiments/knapen_AOT/AOT_stimuli/rescaled_final/0491_rv.mp4	0.0	161.82972288131714	
24	141.1378788948059	pulse	1	t		22.0	2.5	/experiments/knapen_AOT/AOT_stimuli/rescaled_final/0491_rv.mp4	0.0	163.43006587028503	
24	141.25424599647522	fix_post	2		12	22.0	2.5	/experiments/knapen_AOT/AOT_stimuli/rescaled_final/0491_rv.mp4	0.0	163.54643297195435	0.10003900527954102
25	141.35428500175476	fix_pre	0		120	23.0	2.5	/experiments/knapen_AOT/AOT_stimuli/rescaled_final/0118_rv.mp4	0.0	163.6464719772339	1.0001258850097656
25	142.35441088676453	movie	1		242	23.0	2.5	/experiments/knapen_AOT/AOT_stimuli/rescaled_final/0118_rv.mp4	0.0	164.64659786224365	2.492033004760742
25	142.74147200584412	pulse	1	t		23.0	2.5	/experiments/knapen_AOT/AOT_stimuli/rescaled_final/0118_rv.mp4	0.0	165.03365898132324	
25	144.33834099769592	pulse	1	t		23.0	2.5	/experiments/knapen_AOT/AOT_stimuli/rescaled_final/0118_rv.mp4	0.0	166.63052797317505	
25	144.84644389152527	fix_post	2		12	23.0	2.5	/experiments/knapen_AOT/AOT_stimuli/rescaled_final/0118_rv.mp4	0.0	167.1386308670044	0.10003304481506348
26	144.94647693634033	fix_pre	0		120	24.0	2.5	/experiments/knapen_AOT/AOT_stimuli/rescaled_final/0439_rv.mp4	0.0	167.23866391181946	1.0001630783081055
26	145.93843483924866	pulse	0	t		24.0	2.5	/experiments/knapen_AOT/AOT_stimuli/rescaled_final/0439_rv.mp4	0.0	168.23062181472778	
26	145.94664001464844	movie	1		244	24.0	2.5	/experiments/knapen_AOT/AOT_stimuli/rescaled_final/0439_rv.mp4	0.0	168.23882699012756	2.508687973022461
26	147.53941988945007	pulse	1	t		24.0	2.5	/experiments/knapen_AOT/AOT_stimuli/rescaled_final/0439_rv.mp4	0.0	169.8316068649292	
26	148.4553279876709	fix_post	2		12	24.0	2.5	/experiments/knapen_AOT/AOT_stimuli/rescaled_final/0439_rv.mp4	0.0	170.74751496315002	0.10004091262817383
27	148.55536890029907	fix_pre	0		120	25.0	2.5	/experiments/knapen_AOT/AOT_stimuli/rescaled_final/1762_fw.mp4	0.0	170.8475558757782	1.0001311302185059
27	149.13908505439758	pulse	0	t		25.0	2.5	/experiments/knapen_AOT/AOT_stimuli/rescaled_final/1762_fw.mp4	0.0	171.4312720298767	
27	149.55550003051758	movie	1		243	25.0	2.5	/experiments/knapen_AOT/AOT_stimuli/rescaled_final/1762_fw.mp4	0.0	171.8476870059967	2.500361919403076
27	150.73930406570435	pulse	1	t		25.0	2.5	/experiments/knapen_AOT/AOT_stimuli/rescaled_final/1762_fw.mp4	0.0	173.03149104118347	
27	152.05586194992065	fix_post	2		12	25.0	2.5	/experiments/knapen_AOT/AOT_stimuli/rescaled_final/1762_fw.mp4	0.0	174.34804892539978	0.10003304481506348
28	152.15589499473572	fix_pre	0		120	26.0	2.5	/experiments/knapen_AOT/AOT_stimuli/rescaled_final/1468_fw.mp4	0.0	174.44808197021484	1.0001709461212158
28	152.33945083618164	pulse	0	t		26.0	2.5	/experiments/knapen_AOT/AOT_stimuli/rescaled_final/1468_fw.mp4	0.0	174.63163781166077	
28	153.15606594085693	movie	1		243	26.0	2.5	/experiments/knapen_AOT/AOT_stimuli/rescaled_final/1468_fw.mp4	0.0	175.44825291633606	2.500312089920044
28	153.93971705436707	pulse	1	t		26.0	2.5	/experiments/knapen_AOT/AOT_stimuli/rescaled_final/1468_fw.mp4	0.0	176.2319040298462	
28	155.53974890708923	pulse	1	t		26.0	2.5	/experiments/knapen_AOT/AOT_stimuli/rescaled_final/1468_fw.mp4	0.0	177.83193588256836	
28	155.65637803077698	fix_post	2		11	26.0	2.5	/experiments/knapen_AOT/AOT_stimuli/rescaled_final/1468_fw.mp4	0.0	177.9485650062561	0.09175300598144531
29	155.74813103675842	fix_pre	0		121	27.0	2.5	blank	1.0	178.04031801223755	1.0084669589996338
29	156.75659799575806	movie	1		299	27.0	2.5	blank	1.0	179.04878497123718	2.491999864578247
29	157.132719039917	pulse	1	t		27.0	2.5	blank	1.0	179.42490601539612	
29	158.73294186592102	pulse	1	t		27.0	2.5	blank	1.0	181.02512884140015	
29	159.2485978603363	fix_post	2		12	27.0	2.5	blank	1.0	181.54078483581543	0.10002303123474121
30	159.34862089157104	fix_pre	0		119	28.0	2.5	/experiments/knapen_AOT/AOT_stimuli/rescaled_final/0746_fw.mp4	0.0	181.64080786705017	0.991811990737915
30	160.33238005638123	pulse	0	t		28.0	2.5	/experiments/knapen_AOT/AOT_stimuli/rescaled_final/0746_fw.mp4	0.0	182.62456703186035	
30	160.34043288230896	movie	1		241	28.0	2.5	/experiments/knapen_AOT/AOT_stimuli/rescaled_final/0746_fw.mp4	0.0	182.6326198577881	2.50871205329895
30	161.9333839416504	pulse	1	t		28.0	2.5	/experiments/knapen_AOT/AOT_stimuli/rescaled_final/0746_fw.mp4	0.0	184.22557091712952	
30	162.8491449356079	fix_post	2		12	28.0	2.5	/experiments/knapen_AOT/AOT_stimuli/rescaled_final/0746_fw.mp4	0.0	185.14133191108704	0.10002303123474121
31	162.94916796684265	fix_pre	0		120	29.0	2.5	/experiments/knapen_AOT/AOT_stimuli/rescaled_final/1204_fw.mp4	0.0	185.24135494232178	1.0001718997955322
31	163.53276085853577	pulse	0	t		29.0	2.5	/experiments/knapen_AOT/AOT_stimuli/rescaled_final/1204_fw.mp4	0.0	185.8249478340149	
31	163.94933986663818	movie	1		244	29.0	2.5	/experiments/knapen_AOT/AOT_stimuli/rescaled_final/1204_fw.mp4	0.0	186.2415268421173	2.5003609657287598
31	165.13314390182495	pulse	1	t		29.0	2.5	/experiments/knapen_AOT/AOT_stimuli/rescaled_final/1204_fw.mp4	0.0	187.42533087730408	
31	166.44970083236694	fix_post	2		12	29.0	2.5	/experiments/knapen_AOT/AOT_stimuli/rescaled_final/1204_fw.mp4	0.0	188.74188780784607	0.10001707077026367
32	166.5497179031372	fix_pre	0		120	30.0	2.5	/experiments/knapen_AOT/AOT_stimuli/rescaled_final/0825_fw.mp4	0.0	188.84190487861633	1.000162124633789
32	166.73321890830994	pulse	0	t		30.0	2.5	/experiments/knapen_AOT/AOT_stimuli/rescaled_final/0825_fw.mp4	0.0	189.02540588378906	
32	167.549880027771	movie	1		244	30.0	2.5	/experiments/knapen_AOT/AOT_stimuli/rescaled_final/0825_fw.mp4	0.0	189.84206700325012	2.500347852706909
32	168.33349204063416	pulse	1	t		30.0	2.5	/experiments/knapen_AOT/AOT_stimuli/rescaled_final/0825_fw.mp4	0.0	190.62567901611328	
32	169.93379306793213	pulse	1	t		30.0	2.5	/experiments/knapen_AOT/AOT_stimuli/rescaled_final/0825_fw.mp4	0.0	192.22598004341125	
32	170.0502278804779	fix_post	2		12	30.0	2.5	/experiments/knapen_AOT/AOT_stimuli/rescaled_final/0825_fw.mp4	0.0	192.34241485595703	0.1000511646270752
33	170.15027904510498	fix_pre	0		120	31.0	2.5	/experiments/knapen_AOT/AOT_stimuli/rescaled_final/0344_fw.mp4	0.0	192.4424660205841	1.0001327991485596
33	171.15041184425354	movie	1		243	31.0	2.5	/experiments/knapen_AOT/AOT_stimuli/rescaled_final/0344_fw.mp4	0.0	193.44259881973267	2.4919991493225098
33	171.53533601760864	pulse	1	t		31.0	2.5	/experiments/knapen_AOT/AOT_stimuli/rescaled_final/0344_fw.mp4	0.0	193.82752299308777	
33	173.1342749595642	pulse	1	t		31.0	2.5	/experiments/knapen_AOT/AOT_stimuli/rescaled_final/0344_fw.mp4	0.0	195.42646193504333	
33	173.64241099357605	fix_post	2		12	31.0	2.5	/experiments/knapen_AOT/AOT_stimuli/rescaled_final/0344_fw.mp4	0.0	195.93459796905518	0.10002398490905762
34	173.7424349784851	fix_pre	0		120	32.0	2.5	/experiments/knapen_AOT/AOT_stimuli/rescaled_final/1369_rv.mp4	0.0	196.03462195396423	1.0001220703125
34	174.73442697525024	pulse	0	t		32.0	2.5	/experiments/knapen_AOT/AOT_stimuli/rescaled_final/1369_rv.mp4	0.0	197.02661395072937	
34	174.7425570487976	movie	1		244	32.0	2.5	/experiments/knapen_AOT/AOT_stimuli/rescaled_final/1369_rv.mp4	0.0	197.03474402427673	2.5087618827819824
34	176.33547687530518	pulse	1	t		32.0	2.5	/experiments/knapen_AOT/AOT_stimuli/rescaled_final/1369_rv.mp4	0.0	198.6276638507843	
34	177.2513189315796	fix_post	2		12	32.0	2.5	/experiments/knapen_AOT/AOT_stimuli/rescaled_final/1369_rv.mp4	0.0	199.54350590705872	0.1000370979309082
35	177.3513560295105	fix_pre	0		120	33.0	2.5	/experiments/knapen_AOT/AOT_stimuli/rescaled_final/1968_rv.mp4	0.0	199.64354300498962	1.0000948905944824
35	177.93506002426147	pulse	0	t		33.0	2.5	/experiments/knapen_AOT/AOT_stimuli/rescaled_final/1968_rv.mp4	0.0	200.2272469997406	
35	178.35145092010498	movie	1		244	33.0	2.5	/experiments/knapen_AOT/AOT_stimuli/rescaled_final/1968_rv.mp4	0.0	200.6436378955841	2.5004220008850098
35	179.53535389900208	pulse	1	t		33.0	2.5	/experiments/knapen_AOT/AOT_stimuli/rescaled_final/1968_rv.mp4	0.0	201.8275408744812	
35	180.85187292099	fix_post	2		12	33.0	2.5	/experiments/knapen_AOT/AOT_stimuli/rescaled_final/1968_rv.mp4	0.0	203.14405989646912	0.09998893737792969
36	180.95186185836792	fix_pre	0		120	34.0	2.5	/experiments/knapen_AOT/AOT_stimuli/rescaled_final/1988_rv.mp4	0.0	203.24404883384705	1.000148057937622
36	181.1355209350586	pulse	0	t		34.0	2.5	/experiments/knapen_AOT/AOT_stimuli/rescaled_final/1988_rv.mp4	0.0	203.42770791053772	
36	181.95200991630554	movie	1		243	34.0	2.5	/experiments/knapen_AOT/AOT_stimuli/rescaled_final/1988_rv.mp4	0.0	204.24419689178467	2.500385046005249
36	182.73565006256104	pulse	1	t		34.0	2.5	/experiments/knapen_AOT/AOT_stimuli/rescaled_final/1988_rv.mp4	0.0	205.02783703804016	
36	184.3357949256897	pulse	1	t		34.0	2.5	/experiments/knapen_AOT/AOT_stimuli/rescaled_final/1988_rv.mp4	0.0	206.62798190116882	
36	184.4523949623108	fix_post	2		12	34.0	2.5	/experiments/knapen_AOT/AOT_stimuli/rescaled_final/1988_rv.mp4	0.0	206.74458193778992	0.10001397132873535
37	184.55240893363953	fix_pre	0		120	35.0	2.5	blank	1.0	206.84459590911865	1.000154972076416
37	185.55256390571594	movie	1		299	35.0	2.5	blank	1.0	207.84475088119507	2.492016077041626
37	185.93624901771545	pulse	1	t		35.0	2.5	blank	1.0	208.22843599319458	
37	187.5364739894867	pulse	1	t		35.0	2.5	blank	1.0	209.82866096496582	
37	188.04457998275757	fix_post	2		12	35.0	2.5	blank	1.0	210.3367669582367	0.10002589225769043
38	188.14460587501526	fix_pre	0		120	36.0	2.5	/experiments/knapen_AOT/AOT_stimuli/rescaled_final/2035_rv.mp4	0.0	210.43679285049438	1.0001261234283447
38	189.13657093048096	pulse	0	t		36.0	2.5	/experiments/knapen_AOT/AOT_stimuli/rescaled_final/2035_rv.mp4	0.0	211.42875790596008	
38	189.1447319984436	movie	1		245	36.0	2.5	/experiments/knapen_AOT/AOT_stimuli/rescaled_final/2035_rv.mp4	0.0	211.43691897392273	2.50871205329895
38	190.7374129295349	pulse	1	t		36.0	2.5	/experiments/knapen_AOT/AOT_stimuli/rescaled_final/2035_rv.mp4	0.0	213.02959990501404	
38	191.65344405174255	fix_post	2		12	36.0	2.5	/experiments/knapen_AOT/AOT_stimuli/rescaled_final/2035_rv.mp4	0.0	213.94563102722168	0.10003900527954102
39	191.7534830570221	fix_pre	0		120	37.0	2.5	/experiments/knapen_AOT/AOT_stimuli/rescaled_final/0223_rv.mp4	0.0	214.04567003250122	1.000147819519043
39	192.3371880054474	pulse	0	t		37.0	2.5	/experiments/knapen_AOT/AOT_stimuli/rescaled_final/0223_rv.mp4	0.0	214.6293749809265	
39	192.75363087654114	movie	1		243	37.0	2.5	/experiments/knapen_AOT/AOT_stimuli/rescaled_final/0223_rv.mp4	0.0	215.04581785202026	2.500354051589966
39	193.9374978542328	pulse	1	t		37.0	2.5	/experiments/knapen_AOT/AOT_stimuli/rescaled_final/0223_rv.mp4	0.0	216.2296848297119	
39	195.2539849281311	fix_post	2		12	37.0	2.5	/experiments/knapen_AOT/AOT_stimuli/rescaled_final/0223_rv.mp4	0.0	217.54617190361023	0.10002899169921875
40	195.35401391983032	fix_pre	0		120	38.0	2.5	/experiments/knapen_AOT/AOT_stimuli/rescaled_final/0080_fw.mp4	0.0	217.64620089530945	1.0003340244293213
40	195.53752183914185	pulse	0	t		38.0	2.5	/experiments/knapen_AOT/AOT_stimuli/rescaled_final/0080_fw.mp4	0.0	217.82970881462097	
40	196.35434794425964	movie	1		244	38.0	2.5	/experiments/knapen_AOT/AOT_stimuli/rescaled_final/0080_fw.mp4	0.0	218.64653491973877	2.5001718997955322
40	197.13786602020264	pulse	1	t		38.0	2.5	/experiments/knapen_AOT/AOT_stimuli/rescaled_final/0080_fw.mp4	0.0	219.43005299568176	
40	198.7359209060669	pulse	1	t		38.0	2.5	/experiments/knapen_AOT/AOT_stimuli/rescaled_final/0080_fw.mp4	0.0	221.02810788154602	
40	198.85451984405518	fix_post	2		12	38.0	2.5	/experiments/knapen_AOT/AOT_stimuli/rescaled_final/0080_fw.mp4	0.0	221.1467068195343	0.10007309913635254
41	198.95459294319153	fix_pre	0		120	39.0	2.5	/experiments/knapen_AOT/AOT_stimuli/rescaled_final/1037_fw.mp4	0.0	221.24677991867065	1.0000910758972168
41	199.95468401908875	movie	1		243	39.0	2.5	/experiments/knapen_AOT/AOT_stimuli/rescaled_final/1037_fw.mp4	0.0	222.24687099456787	2.4920458793640137
41	200.3387520313263	pulse	1	t		39.0	2.5	/experiments/knapen_AOT/AOT_stimuli/rescaled_final/1037_fw.mp4	0.0	222.63093900680542	
41	201.93857502937317	pulse	1	t		39.0	2.5	/experiments/knapen_AOT/AOT_stimuli/rescaled_final/1037_fw.mp4	0.0	224.2307620048523	
41	202.44672989845276	fix_post	2		12	39.0	2.5	/experiments/knapen_AOT/AOT_stimuli/rescaled_final/1037_fw.mp4	0.0	224.73891687393188	0.1000370979309082
42	202.54676699638367	fix_pre	0		120	40.0	2.5	/experiments/knapen_AOT/AOT_stimuli/rescaled_final/1988_rv.mp4	0.0	224.8389539718628	1.0001490116119385
42	203.53872990608215	pulse	0	t		40.0	2.5	/experiments/knapen_AOT/AOT_stimuli/rescaled_final/1988_rv.mp4	0.0	225.83091688156128	
42	203.5469160079956	movie	1		245	40.0	2.5	/experiments/knapen_AOT/AOT_stimuli/rescaled_final/1988_rv.mp4	0.0	225.83910298347473	2.5086710453033447
42	205.13958597183228	pulse	1	t		40.0	2.5	/experiments/knapen_AOT/AOT_stimuli/rescaled_final/1988_rv.mp4	0.0	227.4317729473114	
42	206.05558705329895	fix_post	2		12	40.0	2.5	/experiments/knapen_AOT/AOT_stimuli/rescaled_final/1988_rv.mp4	0.0	228.34777402877808	0.10004782676696777
43	206.15563488006592	fix_pre	0		120	41.0	2.5	blank	1.0	228.44782185554504	1.000157117843628
43	206.73926305770874	pulse	0	t		41.0	2.5	blank	1.0	229.03145003318787	
43	207.15579199790955	movie	1		300	41.0	2.5	blank	1.0	229.44797897338867	2.5003669261932373
43	208.33953404426575	pulse	1	t		41.0	2.5	blank	1.0	230.63172101974487	
43	209.65615892410278	fix_post	2		12	41.0	2.5	blank	1.0	231.9483458995819	0.09998202323913574
44	209.75614094734192	fix_pre	0		120	42.0	2.5	/experiments/knapen_AOT/AOT_stimuli/rescaled_final/0399_fw.mp4	0.0	232.04832792282104	1.0002169609069824
44	209.9323010444641	pulse	0	t		42.0	2.5	/experiments/knapen_AOT/AOT_stimuli/rescaled_final/0399_fw.mp4	0.0	232.22448801994324	
44	210.7563579082489	movie	1		245	42.0	2.5	/experiments/knapen_AOT/AOT_stimuli/rescaled_final/0399_fw.mp4	0.0	233.04854488372803	2.500296115875244
44	211.53248190879822	pulse	1	t		42.0	2.5	/experiments/knapen_AOT/AOT_stimuli/rescaled_final/0399_fw.mp4	0.0	233.82466888427734	
44	213.13779306411743	pulse	1	t		42.0	2.5	/experiments/knapen_AOT/AOT_stimuli/rescaled_final/0399_fw.mp4	0.0	235.42998003959656	
44	213.25665402412415	fix_post	2		12	42.0	2.5	/experiments/knapen_AOT/AOT_stimuli/rescaled_final/0399_fw.mp4	0.0	235.54884099960327	0.1001119613647461
45	213.3567659854889	fix_pre	0		119	43.0	2.5	/experiments/knapen_AOT/AOT_stimuli/rescaled_final/1614_rv.mp4	0.0	235.64895296096802	0.9917500019073486
45	214.34851598739624	movie	1		245	43.0	2.5	/experiments/knapen_AOT/AOT_stimuli/rescaled_final/1614_rv.mp4	0.0	236.64070296287537	2.500377893447876
45	214.7333629131317	pulse	1	t		43.0	2.5	/experiments/knapen_AOT/AOT_stimuli/rescaled_final/1614_rv.mp4	0.0	237.02554988861084	
45	216.33317303657532	pulse	1	t		43.0	2.5	/experiments/knapen_AOT/AOT_stimuli/rescaled_final/1614_rv.mp4	0.0	238.62536001205444	
45	216.84889388084412	fix_post	2		12	43.0	2.5	/experiments/knapen_AOT/AOT_stimuli/rescaled_final/1614_rv.mp4	0.0	239.14108085632324	0.10006213188171387
46	216.94895601272583	fix_pre	0		119	44.0	2.5	/experiments/knapen_AOT/AOT_stimuli/rescaled_final/0451_fw.mp4	0.0	239.24114298820496	0.991826057434082
46	217.93250703811646	pulse	0	t		44.0	2.5	/experiments/knapen_AOT/AOT_stimuli/rescaled_final/0451_fw.mp4	0.0	240.22469401359558	
46	217.9407820701599	movie	1		244	44.0	2.5	/experiments/knapen_AOT/AOT_stimuli/rescaled_final/0451_fw.mp4	0.0	240.23296904563904	2.5086238384246826
46	219.53401398658752	pulse	1	t		44.0	2.5	/experiments/knapen_AOT/AOT_stimuli/rescaled_final/0451_fw.mp4	0.0	241.82620096206665	
46	220.4494059085846	fix_post	2		12	44.0	2.5	/experiments/knapen_AOT/AOT_stimuli/rescaled_final/0451_fw.mp4	0.0	242.74159288406372	0.10004615783691406
47	220.5494520664215	fix_pre	0		116	45.0	2.5	/experiments/knapen_AOT/AOT_stimuli/rescaled_final/0479_fw.mp4	0.0	242.84163904190063	1.0001728534698486
47	221.13316893577576	pulse	0	t		45.0	2.5	/experiments/knapen_AOT/AOT_stimuli/rescaled_final/0479_fw.mp4	0.0	243.42535591125488	
47	221.54962491989136	movie	1		243	45.0	2.5	/experiments/knapen_AOT/AOT_stimuli/rescaled_final/0479_fw.mp4	0.0	243.84181189537048	2.500338077545166
47	222.733393907547	pulse	1	t		45.0	2.5	/experiments/knapen_AOT/AOT_stimuli/rescaled_final/0479_fw.mp4	0.0	245.02558088302612	
47	224.04996299743652	fix_post	2		12	45.0	2.5	/experiments/knapen_AOT/AOT_stimuli/rescaled_final/0479_fw.mp4	0.0	246.34214997291565	0.09998202323913574
48	224.14994502067566	fix_pre	0		120	46.0	2.5	/experiments/knapen_AOT/AOT_stimuli/rescaled_final/1227_fw.mp4	0.0	246.44213199615479	1.0001838207244873
48	224.3335359096527	pulse	0	t		46.0	2.5	/experiments/knapen_AOT/AOT_stimuli/rescaled_final/1227_fw.mp4	0.0	246.62572288513184	
48	225.15012884140015	movie	1		244	46.0	2.5	/experiments/knapen_AOT/AOT_stimuli/rescaled_final/1227_fw.mp4	0.0	247.44231581687927	2.500352144241333
48	225.93373799324036	pulse	1	t		46.0	2.5	/experiments/knapen_AOT/AOT_stimuli/rescaled_final/1227_fw.mp4	0.0	248.22592496871948	
48	227.53414106369019	pulse	1	t		46.0	2.5	/experiments/knapen_AOT/AOT_stimuli/rescaled_final/1227_fw.mp4	0.0	249.8263280391693	
48	227.65048098564148	fix_post	2		12	46.0	2.5	/experiments/knapen_AOT/AOT_stimuli/rescaled_final/1227_fw.mp4	0.0	249.9426679611206	0.10003185272216797
49	227.75051283836365	fix_pre	0		119	47.0	2.5	/experiments/knapen_AOT/AOT_stimuli/rescaled_final/0738_fw.mp4	0.0	250.04269981384277	0.9918642044067383
49	228.74237704277039	movie	1		244	47.0	2.5	/experiments/knapen_AOT/AOT_stimuli/rescaled_final/0738_fw.mp4	0.0	251.0345640182495	2.5003108978271484
49	229.1343550682068	pulse	1	t		47.0	2.5	/experiments/knapen_AOT/AOT_stimuli/rescaled_final/0738_fw.mp4	0.0	251.4265420436859	
49	230.73451685905457	pulse	1	t		47.0	2.5	/experiments/knapen_AOT/AOT_stimuli/rescaled_final/0738_fw.mp4	0.0	253.0267038345337	
49	231.24268794059753	fix_post	2		12	47.0	2.5	/experiments/knapen_AOT/AOT_stimuli/rescaled_final/0738_fw.mp4	0.0	253.53487491607666	0.10008406639099121
50	231.34277200698853	fix_pre	0		120	48.0	2.5	blank	1.0	253.63495898246765	1.0001389980316162
50	232.33468890190125	pulse	0	t		48.0	2.5	blank	1.0	254.62687587738037	
50	232.34291100502014	movie	1		301	48.0	2.5	blank	1.0	254.63509798049927	2.508664846420288
50	233.93507385253906	pulse	1	t		48.0	2.5	blank	1.0	256.2272608280182	
50	234.85157585144043	fix_post	2		12	48.0	2.5	blank	1.0	257.14376282691956	0.1000070571899414
51	234.95158290863037	fix_pre	0		120	49.0	2.5	/experiments/knapen_AOT/AOT_stimuli/rescaled_final/1818_fw.mp4	0.0	257.2437698841095	1.0001649856567383
51	235.53514790534973	pulse	0	t		49.0	2.5	/experiments/knapen_AOT/AOT_stimuli/rescaled_final/1818_fw.mp4	0.0	257.82733488082886	
51	235.9517478942871	movie	1		243	49.0	2.5	/experiments/knapen_AOT/AOT_stimuli/rescaled_final/1818_fw.mp4	0.0	258.24393486976624	2.5003809928894043
51	237.1355369091034	pulse	1	t		49.0	2.5	/experiments/knapen_AOT/AOT_stimuli/rescaled_final/1818_fw.mp4	0.0	259.4277238845825	
51	238.4521288871765	fix_post	2		12	49.0	2.5	/experiments/knapen_AOT/AOT_stimuli/rescaled_final/1818_fw.mp4	0.0	260.74431586265564	0.09999704360961914
52	238.55212593078613	fix_pre	0		120	50.0	2.5	/experiments/knapen_AOT/AOT_stimuli/rescaled_final/2117_fw.mp4	0.0	260.84431290626526	1.0001730918884277
52	238.73580694198608	pulse	0	t		50.0	2.5	/experiments/knapen_AOT/AOT_stimuli/rescaled_final/2117_fw.mp4	0.0	261.0279939174652	
52	239.55229902267456	movie	1		246	50.0	2.5	/experiments/knapen_AOT/AOT_stimuli/rescaled_final/2117_fw.mp4	0.0	261.8444859981537	2.5003600120544434
52	240.33603405952454	pulse	1	t		50.0	2.5	/experiments/knapen_AOT/AOT_stimuli/rescaled_final/2117_fw.mp4	0.0	262.62822103500366	
52	241.93642687797546	pulse	1	t		50.0	2.5	/experiments/knapen_AOT/AOT_stimuli/rescaled_final/2117_fw.mp4	0.0	264.2286138534546	
52	242.052659034729	fix_post	2		12	50.0	2.5	/experiments/knapen_AOT/AOT_stimuli/rescaled_final/2117_fw.mp4	0.0	264.34484601020813	0.1000528335571289
53	242.15271186828613	fix_pre	0		120	51.0	2.5	/experiments/knapen_AOT/AOT_stimuli/rescaled_final/1918_fw.mp4	0.0	264.44489884376526	1.0000760555267334
53	243.15278792381287	movie	1		242	51.0	2.5	/experiments/knapen_AOT/AOT_stimuli/rescaled_final/1918_fw.mp4	0.0	265.444974899292	2.4920480251312256
53	243.5379090309143	pulse	1	t		51.0	2.5	/experiments/knapen_AOT/AOT_stimuli/rescaled_final/1918_fw.mp4	0.0	265.83009600639343	
53	245.13654899597168	pulse	1	t		51.0	2.5	/experiments/knapen_AOT/AOT_stimuli/rescaled_final/1918_fw.mp4	0.0	267.4287359714508	
53	245.6448359489441	fix_post	2		12	51.0	2.5	/experiments/knapen_AOT/AOT_stimuli/rescaled_final/1918_fw.mp4	0.0	267.9370229244232	0.10006499290466309
54	245.74490094184875	fix_pre	0		120	52.0	2.5	/experiments/knapen_AOT/AOT_stimuli/rescaled_final/0324_fw.mp4	0.0	268.0370879173279	1.0001261234283447
54	246.73696088790894	pulse	0	t		52.0	2.5	/experiments/knapen_AOT/AOT_stimuli/rescaled_final/0324_fw.mp4	0.0	269.02914786338806	
54	246.7450270652771	movie	1		244	52.0	2.5	/experiments/knapen_AOT/AOT_stimuli/rescaled_final/0324_fw.mp4	0.0	269.0372140407562	2.508692979812622
54	248.34097599983215	pulse	1	t		52.0	2.5	/experiments/knapen_AOT/AOT_stimuli/rescaled_final/0324_fw.mp4	0.0	270.6331629753113	
54	249.25372004508972	fix_post	2		12	52.0	2.5	/experiments/knapen_AOT/AOT_stimuli/rescaled_final/0324_fw.mp4	0.0	271.54590702056885	0.1000068187713623
55	249.35372686386108	fix_pre	0		120	53.0	2.5	/experiments/knapen_AOT/AOT_stimuli/rescaled_final/2116_fw.mp4	0.0	271.6459138393402	1.0001871585845947
55	249.9373688697815	pulse	0	t		53.0	2.5	/experiments/knapen_AOT/AOT_stimuli/rescaled_final/2116_fw.mp4	0.0	272.2295558452606	
55	250.35391402244568	movie	1		244	53.0	2.5	/experiments/knapen_AOT/AOT_stimuli/rescaled_final/2116_fw.mp4	0.0	272.6461009979248	2.5003600120544434
55	251.5376169681549	pulse	1	t		53.0	2.5	/experiments/knapen_AOT/AOT_stimuli/rescaled_final/2116_fw.mp4	0.0	273.82980394363403	
55	252.85427403450012	fix_post	2		12	53.0	2.5	/experiments/knapen_AOT/AOT_stimuli/rescaled_final/2116_fw.mp4	0.0	275.14646100997925	0.10002493858337402
56	252.9542989730835	fix_pre	0		120	54.0	2.5	/experiments/knapen_AOT/AOT_stimuli/rescaled_final/0536_rv.mp4	0.0	275.2464859485626	1.0002379417419434
56	253.13777494430542	pulse	0	t		54.0	2.5	/experiments/knapen_AOT/AOT_stimuli/rescaled_final/0536_rv.mp4	0.0	275.42996191978455	
56	253.95453691482544	movie	1		244	54.0	2.5	/experiments/knapen_AOT/AOT_stimuli/rescaled_final/0536_rv.mp4	0.0	276.24672389030457	2.5002729892730713
56	254.73813486099243	pulse	1	t		54.0	2.5	/experiments/knapen_AOT/AOT_stimuli/rescaled_final/0536_rv.mp4	0.0	277.03032183647156	
56	256.3384668827057	pulse	1	t		54.0	2.5	/experiments/knapen_AOT/AOT_stimuli/rescaled_final/0536_rv.mp4	0.0	278.6306538581848	
56	256.4548099040985	fix_post	2		12	54.0	2.5	/experiments/knapen_AOT/AOT_stimuli/rescaled_final/0536_rv.mp4	0.0	278.74699687957764	0.10001897811889648
57	256.5548288822174	fix_pre	0		120	55.0	2.5	blank	1.0	278.84701585769653	1.0001649856567383
57	257.55499386787415	movie	1		299	55.0	2.5	blank	1.0	279.84718084335327	2.492017984390259
57	257.9384858608246	pulse	1	t		55.0	2.5	blank	1.0	280.2306728363037	
57	259.53867983818054	pulse	1	t		55.0	2.5	blank	1.0	281.83086681365967	
57	260.0470118522644	fix_post	2		12	55.0	2.5	blank	1.0	282.33919882774353	0.10001301765441895
58	260.1470248699188	fix_pre	0		120	56.0	2.5	/experiments/knapen_AOT/AOT_stimuli/rescaled_final/0280_rv.mp4	0.0	282.43921184539795	1.0001301765441895
58	261.1390838623047	pulse	0	t		56.0	2.5	/experiments/knapen_AOT/AOT_stimuli/rescaled_final/0280_rv.mp4	0.0	283.4312708377838	
58	261.147155046463	movie	1		244	56.0	2.5	/experiments/knapen_AOT/AOT_stimuli/rescaled_final/0280_rv.mp4	0.0	283.43934202194214	2.5086958408355713
58	262.74328994750977	pulse	1	t		56.0	2.5	/experiments/knapen_AOT/AOT_stimuli/rescaled_final/0280_rv.mp4	0.0	285.0354769229889	
58	263.6558508872986	fix_post	2		12	56.0	2.5	/experiments/knapen_AOT/AOT_stimuli/rescaled_final/0280_rv.mp4	0.0	285.9480378627777	0.10001611709594727
59	263.75586700439453	fix_pre	0		120	57.0	2.5	/experiments/knapen_AOT/AOT_stimuli/rescaled_final/1762_fw.mp4	0.0	286.04805397987366	1.0001728534698486
59	264.33206701278687	pulse	0	t		57.0	2.5	/experiments/knapen_AOT/AOT_stimuli/rescaled_final/1762_fw.mp4	0.0	286.624253988266	
59	264.7560398578644	movie	1		243	57.0	2.5	/experiments/knapen_AOT/AOT_stimuli/rescaled_final/1762_fw.mp4	0.0	287.0482268333435	2.5003740787506104
59	265.93195700645447	pulse	1	t		57.0	2.5	/experiments/knapen_AOT/AOT_stimuli/rescaled_final/1762_fw.mp4	0.0	288.2241439819336	
59	267.256413936615	fix_post	2		12	57.0	2.5	/experiments/knapen_AOT/AOT_stimuli/rescaled_final/1762_fw.mp4	0.0	289.5486009120941	0.10000395774841309
60	267.3564178943634	fix_pre	0		120	58.0	2.5	/experiments/knapen_AOT/AOT_stimuli/rescaled_final/1198_rv.mp4	0.0	289.64860486984253	1.0001611709594727
60	267.53241300582886	pulse	0	t		58.0	2.5	/experiments/knapen_AOT/AOT_stimuli/rescaled_final/1198_rv.mp4	0.0	289.824599981308	
60	268.3565790653229	movie	1		243	58.0	2.5	/experiments/knapen_AOT/AOT_stimuli/rescaled_final/1198_rv.mp4	0.0	290.648766040802	2.5003738403320312
60	269.13196301460266	pulse	1	t		58.0	2.5	/experiments/knapen_AOT/AOT_stimuli/rescaled_final/1198_rv.mp4	0.0	291.4241499900818	
60	270.73202896118164	pulse	1	t		58.0	2.5	/experiments/knapen_AOT/AOT_stimuli/rescaled_final/1198_rv.mp4	0.0	293.02421593666077	
60	270.8569529056549	fix_post	2		12	58.0	2.5	/experiments/knapen_AOT/AOT_stimuli/rescaled_final/1198_rv.mp4	0.0	293.14913988113403	0.1000070571899414
61	270.95695996284485	fix_pre	0		120	59.0	2.5	/experiments/knapen_AOT/AOT_stimuli/rescaled_final/0131_fw.mp4	0.0	293.249146938324	1.0001609325408936
61	271.95712089538574	movie	1		242	59.0	2.5	/experiments/knapen_AOT/AOT_stimuli/rescaled_final/0131_fw.mp4	0.0	294.24930787086487	2.4920830726623535
61	272.3323700428009	pulse	1	t		59.0	2.5	/experiments/knapen_AOT/AOT_stimuli/rescaled_final/0131_fw.mp4	0.0	294.62455701828003	
61	273.9325759410858	pulse	1	t		59.0	2.5	/experiments/knapen_AOT/AOT_stimuli/rescaled_final/0131_fw.mp4	0.0	296.22476291656494	
61	274.4492039680481	fix_post	2		12	59.0	2.5	/experiments/knapen_AOT/AOT_stimuli/rescaled_final/0131_fw.mp4	0.0	296.7413909435272	0.09996199607849121
62	274.5491659641266	fix_pre	0		119	60.0	2.5	/experiments/knapen_AOT/AOT_stimuli/rescaled_final/0356_fw.mp4	0.0	296.8413529396057	0.9918370246887207
62	275.5327899456024	pulse	0	t		60.0	2.5	/experiments/knapen_AOT/AOT_stimuli/rescaled_final/0356_fw.mp4	0.0	297.82497692108154	
62	275.5410029888153	movie	1		244	60.0	2.5	/experiments/knapen_AOT/AOT_stimuli/rescaled_final/0356_fw.mp4	0.0	297.83318996429443	2.5086798667907715
62	277.1340420246124	pulse	1	t		60.0	2.5	/experiments/knapen_AOT/AOT_stimuli/rescaled_final/0356_fw.mp4	0.0	299.42622900009155	
62	278.0496828556061	fix_post	2		12	60.0	2.5	/experiments/knapen_AOT/AOT_stimuli/rescaled_final/0356_fw.mp4	0.0	300.3418698310852	0.10001111030578613
63	278.14969396591187	fix_pre	0		120	61.0	2.5	/experiments/knapen_AOT/AOT_stimuli/rescaled_final/1655_fw.mp4	0.0	300.441880941391	1.0001978874206543
63	278.7332499027252	pulse	0	t		61.0	2.5	/experiments/knapen_AOT/AOT_stimuli/rescaled_final/1655_fw.mp4	0.0	301.02543687820435	
63	279.1498918533325	movie	1		244	61.0	2.5	/experiments/knapen_AOT/AOT_stimuli/rescaled_final/1655_fw.mp4	0.0	301.44207882881165	2.500359058380127
63	280.33359384536743	pulse	1	t		61.0	2.5	/experiments/knapen_AOT/AOT_stimuli/rescaled_final/1655_fw.mp4	0.0	302.62578082084656	
63	281.65025091171265	fix_post	2		12	61.0	2.5	/experiments/knapen_AOT/AOT_stimuli/rescaled_final/1655_fw.mp4	0.0	303.9424378871918	0.1000361442565918
64	281.75028705596924	fix_pre	0		120	62.0	2.5	/experiments/knapen_AOT/AOT_stimuli/rescaled_final/0614_fw.mp4	0.0	304.04247403144836	1.0001490116119385
64	281.9337508678436	pulse	0	t		62.0	2.5	/experiments/knapen_AOT/AOT_stimuli/rescaled_final/0614_fw.mp4	0.0	304.22593784332275	
64	282.7504360675812	movie	1		241	62.0	2.5	/experiments/knapen_AOT/AOT_stimuli/rescaled_final/0614_fw.mp4	0.0	305.0426230430603	2.500311851501465
64	283.53399991989136	pulse	1	t		62.0	2.5	/experiments/knapen_AOT/AOT_stimuli/rescaled_final/0614_fw.mp4	0.0	305.8261868953705	
64	285.1341199874878	pulse	1	t		62.0	2.5	/experiments/knapen_AOT/AOT_stimuli/rescaled_final/0614_fw.mp4	0.0	307.4263069629669	
64	285.25074791908264	fix_post	2		12	62.0	2.5	/experiments/knapen_AOT/AOT_stimuli/rescaled_final/0614_fw.mp4	0.0	307.54293489456177	0.10004115104675293
65	285.3507890701294	fix_pre	0		119	63.0	2.5	blank	1.0	307.6429760456085	0.9917998313903809
65	286.3425889015198	movie	1		300	63.0	2.5	blank	1.0	308.6347758769989	2.5004329681396484
65	286.7345390319824	pulse	1	t		63.0	2.5	blank	1.0	309.02672600746155	
65	288.33463501930237	pulse	1	t		63.0	2.5	blank	1.0	310.6268219947815	
65	288.8430218696594	fix_post	2		12	63.0	2.5	blank	1.0	311.13520884513855	0.09999299049377441
66	288.9430148601532	fix_pre	0		120	64.0	2.5	/experiments/knapen_AOT/AOT_stimuli/rescaled_final/1222_rv.mp4	0.0	311.2352018356323	1.0001611709594727
66	289.9349639415741	pulse	0	t		64.0	2.5	/experiments/knapen_AOT/AOT_stimuli/rescaled_final/1222_rv.mp4	0.0	312.2271509170532	
66	289.94317603111267	movie	1		244	64.0	2.5	/experiments/knapen_AOT/AOT_stimuli/rescaled_final/1222_rv.mp4	0.0	312.2353630065918	2.5086708068847656
66	291.53603291511536	pulse	1	t		64.0	2.5	/experiments/knapen_AOT/AOT_stimuli/rescaled_final/1222_rv.mp4	0.0	313.8282198905945	
66	292.45184683799744	fix_post	2		12	64.0	2.5	/experiments/knapen_AOT/AOT_stimuli/rescaled_final/1222_rv.mp4	0.0	314.74403381347656	0.10000419616699219
67	292.55185103416443	fix_pre	0		120	65.0	2.5	/experiments/knapen_AOT/AOT_stimuli/rescaled_final/0374_fw.mp4	0.0	314.84403800964355	1.000190019607544
67	293.135488986969	pulse	0	t		65.0	2.5	/experiments/knapen_AOT/AOT_stimuli/rescaled_final/0374_fw.mp4	0.0	315.4276759624481	
67	293.552041053772	movie	1		244	65.0	2.5	/experiments/knapen_AOT/AOT_stimuli/rescaled_final/0374_fw.mp4	0.0	315.8442280292511	2.5003979206085205
67	294.735888004303	pulse	1	t		65.0	2.5	/experiments/knapen_AOT/AOT_stimuli/rescaled_final/0374_fw.mp4	0.0	317.0280749797821	
67	296.0524389743805	fix_post	2		12	65.0	2.5	/experiments/knapen_AOT/AOT_stimuli/rescaled_final/0374_fw.mp4	0.0	318.3446259498596	0.09997105598449707
68	296.152410030365	fix_pre	0		120	66.0	2.5	/experiments/knapen_AOT/AOT_stimuli/rescaled_final/0511_rv.mp4	0.0	318.4445970058441	1.000154972076416
68	296.3359339237213	pulse	0	t		66.0	2.5	/experiments/knapen_AOT/AOT_stimuli/rescaled_final/0511_rv.mp4	0.0	318.62812089920044	
68	297.1525650024414	movie	1		245	66.0	2.5	/experiments/knapen_AOT/AOT_stimuli/rescaled_final/0511_rv.mp4	0.0	319.44475197792053	2.5003349781036377
68	297.93611693382263	pulse	1	t		66.0	2.5	/experiments/knapen_AOT/AOT_stimuli/rescaled_final/0511_rv.mp4	0.0	320.22830390930176	
68	299.5342299938202	pulse	1	t		66.0	2.5	/experiments/knapen_AOT/AOT_stimuli/rescaled_final/0511_rv.mp4	0.0	321.8264169692993	
68	299.65289998054504	fix_post	2		12	66.0	2.5	/experiments/knapen_AOT/AOT_stimuli/rescaled_final/0511_rv.mp4	0.0	321.94508695602417	0.10006403923034668
69	299.7529640197754	fix_pre	0		120	67.0	2.5	/experiments/knapen_AOT/AOT_stimuli/rescaled_final/1964_fw.mp4	0.0	322.0451509952545	1.0001389980316162
69	300.753103017807	movie	1		244	67.0	2.5	/experiments/knapen_AOT/AOT_stimuli/rescaled_final/1964_fw.mp4	0.0	323.04528999328613	2.492033004760742
69	301.1371738910675	pulse	1	t		67.0	2.5	/experiments/knapen_AOT/AOT_stimuli/rescaled_final/1964_fw.mp4	0.0	323.42936086654663	
69	302.7369439601898	pulse	1	t		67.0	2.5	/experiments/knapen_AOT/AOT_stimuli/rescaled_final/1964_fw.mp4	0.0	325.02913093566895	
69	303.24513602256775	fix_post	2		12	67.0	2.5	/experiments/knapen_AOT/AOT_stimuli/rescaled_final/1964_fw.mp4	0.0	325.5373229980469	0.10010099411010742
70	303.34523701667786	fix_pre	0		120	68.0	2.5	blank	1.0	325.637423992157	1.0001180171966553
70	304.337198972702	pulse	0	t		68.0	2.5	blank	1.0	326.62938594818115	
70	304.3453550338745	movie	1		301	68.0	2.5	blank	1.0	326.63754200935364	2.5086889266967773
70	305.937353849411	pulse	1	t		68.0	2.5	blank	1.0	328.22954082489014	
70	306.8540439605713	fix_post	2		12	68.0	2.5	blank	1.0	329.1462309360504	0.09999799728393555
71	306.9540419578552	fix_pre	0		120	69.0	2.5	/experiments/knapen_AOT/AOT_stimuli/rescaled_final/0733_rv.mp4	0.0	329.24622893333435	1.000128984451294
71	307.53759002685547	pulse	0	t		69.0	2.5	/experiments/knapen_AOT/AOT_stimuli/rescaled_final/0733_rv.mp4	0.0	329.8297770023346	
71	307.9541709423065	movie	1		245	69.0	2.5	/experiments/knapen_AOT/AOT_stimuli/rescaled_final/0733_rv.mp4	0.0	330.24635791778564	2.500349998474121
71	309.1379990577698	pulse	1	t		69.0	2.5	/experiments/knapen_AOT/AOT_stimuli/rescaled_final/0733_rv.mp4	0.0	331.4301860332489	
71	310.45452094078064	fix_post	2		12	69.0	2.5	/experiments/knapen_AOT/AOT_stimuli/rescaled_final/0733_rv.mp4	0.0	332.74670791625977	0.10003900527954102
72	310.5545599460602	fix_pre	0		120	70.0	2.5	/experiments/knapen_AOT/AOT_stimuli/rescaled_final/2033_rv.mp4	0.0	332.8467469215393	1.0001580715179443
72	310.7381248474121	pulse	0	t		70.0	2.5	/experiments/knapen_AOT/AOT_stimuli/rescaled_final/2033_rv.mp4	0.0	333.03031182289124	
72	311.5547180175781	movie	1		244	70.0	2.5	/experiments/knapen_AOT/AOT_stimuli/rescaled_final/2033_rv.mp4	0.0	333.84690499305725	2.5003678798675537
72	312.3383638858795	pulse	1	t		70.0	2.5	/experiments/knapen_AOT/AOT_stimuli/rescaled_final/2033_rv.mp4	0.0	334.63055086135864	
72	313.9388530254364	pulse	1	t		70.0	2.5	/experiments/knapen_AOT/AOT_stimuli/rescaled_final/2033_rv.mp4	0.0	336.2310400009155	
72	314.0550858974457	fix_post	2		12	70.0	2.5	/experiments/knapen_AOT/AOT_stimuli/rescaled_final/2033_rv.mp4	0.0	336.3472728729248	0.10001301765441895
73	314.1550989151001	fix_pre	0		120	71.0	2.5	/experiments/knapen_AOT/AOT_stimuli/rescaled_final/0957_rv.mp4	0.0	336.4472858905792	1.0001609325408936
73	315.155259847641	movie	1		242	71.0	2.5	/experiments/knapen_AOT/AOT_stimuli/rescaled_final/0957_rv.mp4	0.0	337.4474468231201	2.492058038711548
73	315.5402309894562	pulse	1	t		71.0	2.5	/experiments/knapen_AOT/AOT_stimuli/rescaled_final/0957_rv.mp4	0.0	337.8324179649353	
73	317.1391370296478	pulse	1	t		71.0	2.5	/experiments/knapen_AOT/AOT_stimuli/rescaled_final/0957_rv.mp4	0.0	339.43132400512695	
73	317.64731788635254	fix_post	2		12	71.0	2.5	/experiments/knapen_AOT/AOT_stimuli/rescaled_final/0957_rv.mp4	0.0	339.93950486183167	0.09997701644897461
74	317.7472949028015	fix_pre	0		120	72.0	2.5	/experiments/knapen_AOT/AOT_stimuli/rescaled_final/1496_rv.mp4	0.0	340.03948187828064	1.0001420974731445
74	318.7393488883972	pulse	0	t		72.0	2.5	/experiments/knapen_AOT/AOT_stimuli/rescaled_final/1496_rv.mp4	0.0	341.03153586387634	
74	318.74743700027466	movie	1		247	72.0	2.5	/experiments/knapen_AOT/AOT_stimuli/rescaled_final/1496_rv.mp4	0.0	341.0396239757538	2.508759021759033
74	320.3400299549103	pulse	1	t		72.0	2.5	/experiments/knapen_AOT/AOT_stimuli/rescaled_final/1496_rv.mp4	0.0	342.6322169303894	
74	321.2561960220337	fix_post	2		12	72.0	2.5	/experiments/knapen_AOT/AOT_stimuli/rescaled_final/1496_rv.mp4	0.0	343.5483829975128	0.10001587867736816
75	321.35621190071106	fix_pre	0		120	73.0	2.5	/experiments/knapen_AOT/AOT_stimuli/rescaled_final/1297_fw.mp4	0.0	343.6483988761902	1.0001139640808105
75	321.9397540092468	pulse	0	t		73.0	2.5	/experiments/knapen_AOT/AOT_stimuli/rescaled_final/1297_fw.mp4	0.0	344.23194098472595	
75	322.35632586479187	movie	1		244	73.0	2.5	/experiments/knapen_AOT/AOT_stimuli/rescaled_final/1297_fw.mp4	0.0	344.648512840271	2.5003790855407715
75	323.5401909351349	pulse	1	t		73.0	2.5	/experiments/knapen_AOT/AOT_stimuli/rescaled_final/1297_fw.mp4	0.0	345.832377910614	
75	324.85670495033264	fix_post	2		12	73.0	2.5	/experiments/knapen_AOT/AOT_stimuli/rescaled_final/1297_fw.mp4	0.0	347.14889192581177	0.09999489784240723
76	324.95669984817505	fix_pre	0		120	74.0	2.5	/experiments/knapen_AOT/AOT_stimuli/rescaled_final/1222_fw.mp4	0.0	347.2488868236542	1.0001721382141113
76	325.13274097442627	pulse	0	t		74.0	2.5	/experiments/knapen_AOT/AOT_stimuli/rescaled_final/1222_fw.mp4	0.0	347.4249279499054	
76	325.95687198638916	movie	1		243	74.0	2.5	/experiments/knapen_AOT/AOT_stimuli/rescaled_final/1222_fw.mp4	0.0	348.2490589618683	2.5003468990325928
76	326.7330949306488	pulse	1	t		74.0	2.5	/experiments/knapen_AOT/AOT_stimuli/rescaled_final/1222_fw.mp4	0.0	349.02528190612793	
76	328.341059923172	pulse	1	t		74.0	2.5	/experiments/knapen_AOT/AOT_stimuli/rescaled_final/1222_fw.mp4	0.0	350.6332468986511	
76	328.45721888542175	fix_post	2		12	74.0	2.5	/experiments/knapen_AOT/AOT_stimuli/rescaled_final/1222_fw.mp4	0.0	350.7494058609009	0.10005497932434082
77	328.5572738647461	fix_pre	0		120	75.0	2.5	blank	1.0	350.8494608402252	1.0000991821289062
77	329.557373046875	movie	1		299	75.0	2.5	blank	1.0	351.8495600223541	2.4920477867126465
77	329.9327280521393	pulse	1	t		75.0	2.5	blank	1.0	352.2249150276184	
77	331.532812833786	pulse	1	t		75.0	2.5	blank	1.0	353.82499980926514	
77	332.04942083358765	fix_post	2		12	75.0	2.5	blank	1.0	354.3416078090668	0.10002017021179199
78	332.14944100379944	fix_pre	0		119	76.0	2.5	/experiments/knapen_AOT/AOT_stimuli/rescaled_final/0952_rv.mp4	0.0	354.44162797927856	0.9918949604034424
78	333.133043050766	pulse	0	t		76.0	2.5	/experiments/knapen_AOT/AOT_stimuli/rescaled_final/0952_rv.mp4	0.0	355.4252300262451	
78	333.1413359642029	movie	1		248	76.0	2.5	/experiments/knapen_AOT/AOT_stimuli/rescaled_final/0952_rv.mp4	0.0	355.433522939682	2.5086669921875
78	334.73412799835205	pulse	1	t		76.0	2.5	/experiments/knapen_AOT/AOT_stimuli/rescaled_final/0952_rv.mp4	0.0	357.0263149738312	
78	335.6500029563904	fix_post	2		12	76.0	2.5	/experiments/knapen_AOT/AOT_stimuli/rescaled_final/0952_rv.mp4	0.0	357.9421899318695	0.09997200965881348
79	335.7499749660492	fix_pre	0		120	77.0	2.5	/experiments/knapen_AOT/AOT_stimuli/rescaled_final/0957_rv.mp4	0.0	358.0421619415283	1.0001699924468994
79	336.3335258960724	pulse	0	t		77.0	2.5	/experiments/knapen_AOT/AOT_stimuli/rescaled_final/0957_rv.mp4	0.0	358.6257128715515	
79	336.7501449584961	movie	1		243	77.0	2.5	/experiments/knapen_AOT/AOT_stimuli/rescaled_final/0957_rv.mp4	0.0	359.0423319339752	2.500359058380127
79	337.9338879585266	pulse	1	t		77.0	2.5	/experiments/knapen_AOT/AOT_stimuli/rescaled_final/0957_rv.mp4	0.0	360.22607493400574	
79	339.2505040168762	fix_post	2		12	77.0	2.5	/experiments/knapen_AOT/AOT_stimuli/rescaled_final/0957_rv.mp4	0.0	361.54269099235535	0.10003900527954102
80	339.35054302215576	fix_pre	0		120	78.0	2.5	/experiments/knapen_AOT/AOT_stimuli/rescaled_final/0751_rv.mp4	0.0	361.6427299976349	1.000169038772583
80	339.5340828895569	pulse	0	t		78.0	2.5	/experiments/knapen_AOT/AOT_stimuli/rescaled_final/0751_rv.mp4	0.0	361.826269865036	
80	340.35071206092834	movie	1		247	78.0	2.5	/experiments/knapen_AOT/AOT_stimuli/rescaled_final/0751_rv.mp4	0.0	362.64289903640747	2.5003278255462646
80	341.1342730522156	pulse	1	t		78.0	2.5	/experiments/knapen_AOT/AOT_stimuli/rescaled_final/0751_rv.mp4	0.0	363.4264600276947	
80	342.7345688343048	pulse	1	t		78.0	2.5	/experiments/knapen_AOT/AOT_stimuli/rescaled_final/0751_rv.mp4	0.0	365.02675580978394	
80	342.8510398864746	fix_post	2		12	78.0	2.5	/experiments/knapen_AOT/AOT_stimuli/rescaled_final/0751_rv.mp4	0.0	365.14322686195374	0.10006308555603027
81	342.95110297203064	fix_pre	0		120	79.0	2.5	/experiments/knapen_AOT/AOT_stimuli/rescaled_final/0790_rv.mp4	0.0	365.24328994750977	1.000128984451294
81	343.95123195648193	movie	1		239	79.0	2.5	/experiments/knapen_AOT/AOT_stimuli/rescaled_final/0790_rv.mp4	0.0	366.24341893196106	2.4920310974121094
81	344.3352370262146	pulse	1	t		79.0	2.5	/experiments/knapen_AOT/AOT_stimuli/rescaled_final/0790_rv.mp4	0.0	366.6274240016937	
81	345.9351279735565	pulse	1	t		79.0	2.5	/experiments/knapen_AOT/AOT_stimuli/rescaled_final/0790_rv.mp4	0.0	368.22731494903564	
81	346.44326305389404	fix_post	2		12	79.0	2.5	/experiments/knapen_AOT/AOT_stimuli/rescaled_final/0790_rv.mp4	0.0	368.73545002937317	0.10004591941833496
82	346.5433089733124	fix_pre	0		120	80.0	2.5	/experiments/knapen_AOT/AOT_stimuli/rescaled_final/1204_rv.mp4	0.0	368.8354959487915	1.0000770092010498
82	347.53529596328735	pulse	0	t		80.0	2.5	/experiments/knapen_AOT/AOT_stimuli/rescaled_final/1204_rv.mp4	0.0	369.8274829387665	
82	347.5433859825134	movie	1		245	80.0	2.5	/experiments/knapen_AOT/AOT_stimuli/rescaled_final/1204_rv.mp4	0.0	369.83557295799255	2.508725881576538
82	349.1404678821564	pulse	1	t		80.0	2.5	/experiments/knapen_AOT/AOT_stimuli/rescaled_final/1204_rv.mp4	0.0	371.4326548576355	
82	350.05211186408997	fix_post	2		12	80.0	2.5	/experiments/knapen_AOT/AOT_stimuli/rescaled_final/1204_rv.mp4	0.0	372.3442988395691	0.10000014305114746
83	350.1521120071411	fix_pre	0		120	81.0	2.5	/experiments/knapen_AOT/AOT_stimuli/rescaled_final/1297_fw.mp4	0.0	372.44429898262024	1.0002110004425049
83	350.73574686050415	pulse	0	t		81.0	2.5	/experiments/knapen_AOT/AOT_stimuli/rescaled_final/1297_fw.mp4	0.0	373.0279338359833	
83	351.1523230075836	movie	1		243	81.0	2.5	/experiments/knapen_AOT/AOT_stimuli/rescaled_final/1297_fw.mp4	0.0	373.44450998306274	2.500325918197632
83	352.33605098724365	pulse	1	t		81.0	2.5	/experiments/knapen_AOT/AOT_stimuli/rescaled_final/1297_fw.mp4	0.0	374.6282379627228	
83	353.65264892578125	fix_post	2		12	81.0	2.5	/experiments/knapen_AOT/AOT_stimuli/rescaled_final/1297_fw.mp4	0.0	375.9448359012604	0.10003113746643066
84	353.7526800632477	fix_pre	0		120	82.0	2.5	/experiments/knapen_AOT/AOT_stimuli/rescaled_final/0268_fw.mp4	0.0	376.0448670387268	1.0001389980316162
84	353.93629002571106	pulse	0	t		82.0	2.5	/experiments/knapen_AOT/AOT_stimuli/rescaled_final/0268_fw.mp4	0.0	376.2284770011902	
84	354.7528190612793	movie	1		243	82.0	2.5	/experiments/knapen_AOT/AOT_stimuli/rescaled_final/0268_fw.mp4	0.0	377.0450060367584	2.5004348754882812
84	355.53650093078613	pulse	1	t		82.0	2.5	/experiments/knapen_AOT/AOT_stimuli/rescaled_final/0268_fw.mp4	0.0	377.82868790626526	
84	357.13657784461975	pulse	1	t		82.0	2.5	/experiments/knapen_AOT/AOT_stimuli/rescaled_final/0268_fw.mp4	0.0	379.4287648200989	
84	357.2532539367676	fix_post	2		12	82.0	2.5	/experiments/knapen_AOT/AOT_stimuli/rescaled_final/0268_fw.mp4	0.0	379.5454409122467	0.09998297691345215
85	357.35323691368103	fix_pre	0		120	83.0	2.5	blank	1.0	379.64542388916016	1.0001299381256104
85	358.35336685180664	movie	1		299	83.0	2.5	blank	1.0	380.64555382728577	2.492030143737793
85	358.73693799972534	pulse	1	t		83.0	2.5	blank	1.0	381.02912497520447	
85	360.33720803260803	pulse	1	t		83.0	2.5	blank	1.0	382.62939500808716	
85	360.84539699554443	fix_post	2		12	83.0	2.5	blank	1.0	383.13758397102356	0.10000991821289062
87	360.9454069137573	stim	0		1716					383.23759388923645	14.302287101745605
87	361.9374918937683	pulse	0	t						384.22967886924744	
87	363.5375988483429	pulse	0	t						385.829785823822	
87	365.137757062912	pulse	0	t						387.4299440383911	
87	366.738126039505	pulse	0	t						389.03031301498413	
87	368.3383798599243	pulse	0	t						390.63056683540344	
87	369.93853187561035	pulse	0	t						392.2307188510895	
87	371.538724899292	pulse	0	t						393.8309118747711	
87	373.1390199661255	pulse	0	t						395.4312069416046	
87	374.73931789398193	pulse	0	t						397.03150486946106	
