trial_nr	onset	event_type	phase	response	nr_frames	movie_index	movie_duration	movie_file	blank	onset_abs	duration
0	0.10828804969787598	stim	0		93					65.80091094970703	0.7749819755554199
0	0.8752210140228271	response	0	space						66.56784391403198	
1	0.8832700252532959	stim	0		5639					66.57589292526245	46.99150204658508
1	47.87114906311035	pulse	0	t						113.5637719631195	
1	47.87477207183838	stim	1		1717					113.56739497184753	14.308305978775024
1	49.46656107902527	pulse	1	t						115.15918397903442	
1	51.06651496887207	pulse	1	t						116.75913786888123	
1	52.66659712791443	pulse	1	t						118.35922002792358	
1	54.266602993011475	pulse	1	t						119.95922589302063	
1	55.86657500267029	pulse	1	t						121.55919790267944	
1	57.46661305427551	pulse	1	t						123.15923595428467	
1	59.06657290458679	pulse	1	t						124.75919580459595	
1	60.66655898094177	pulse	1	t						126.35918188095093	
2	62.1830780506134	fix_pre	0		11	0.0	2.5	/experiments/AOT/AOT_stimuli/rescaled_final/1299_rv.mp4	0.0	127.87570095062256	0.09175395965576172
2	62.26662302017212	pulse	0	t		0.0	2.5	/experiments/AOT/AOT_stimuli/rescaled_final/1299_rv.mp4	0.0	127.95924592018127	
2	62.274832010269165	movie	1		244	0.0	2.5	/experiments/AOT/AOT_stimuli/rescaled_final/1299_rv.mp4	0.0	127.96745491027832	2.508246898651123
2	63.86669111251831	pulse	1	t		0.0	2.5	/experiments/AOT/AOT_stimuli/rescaled_final/1299_rv.mp4	0.0	129.55931401252747	
2	64.78307890892029	fix_post	2		12	0.0	2.5	/experiments/AOT/AOT_stimuli/rescaled_final/1299_rv.mp4	0.0	130.47570180892944	0.09995603561401367
3	64.8830349445343	fix_pre	0		120	1.0	2.5	/experiments/AOT/AOT_stimuli/rescaled_final/0196_fw.mp4	0.0	130.57565784454346	1.0000250339508057
3	65.46650409698486	pulse	0	t		1.0	2.5	/experiments/AOT/AOT_stimuli/rescaled_final/0196_fw.mp4	0.0	131.15912699699402	
3	65.88305997848511	movie	1		245	1.0	2.5	/experiments/AOT/AOT_stimuli/rescaled_final/0196_fw.mp4	0.0	131.57568287849426	2.4995579719543457
3	67.06665110588074	pulse	1	t		1.0	2.5	/experiments/AOT/AOT_stimuli/rescaled_final/0196_fw.mp4	0.0	132.7592740058899	
3	68.38261795043945	fix_post	2		12	1.0	2.5	/experiments/AOT/AOT_stimuli/rescaled_final/0196_fw.mp4	0.0	134.0752408504486	0.10049605369567871
4	68.48311400413513	fix_pre	0		120	2.0	2.5	/experiments/AOT/AOT_stimuli/rescaled_final/0459_rv.mp4	0.0	134.1757369041443	0.999924898147583
4	68.6666750907898	pulse	0	t		2.0	2.5	/experiments/AOT/AOT_stimuli/rescaled_final/0459_rv.mp4	0.0	134.35929799079895	
4	69.48303890228271	movie	1		245	2.0	2.5	/experiments/AOT/AOT_stimuli/rescaled_final/0459_rv.mp4	0.0	135.17566180229187	2.4996089935302734
4	70.26650190353394	pulse	1	t		2.0	2.5	/experiments/AOT/AOT_stimuli/rescaled_final/0459_rv.mp4	0.0	135.9591248035431	
4	71.86603593826294	pulse	1	t		2.0	2.5	/experiments/AOT/AOT_stimuli/rescaled_final/0459_rv.mp4	0.0	137.5586588382721	
4	71.98264789581299	fix_post	2		12	2.0	2.5	/experiments/AOT/AOT_stimuli/rescaled_final/0459_rv.mp4	0.0	137.67527079582214	0.10045599937438965
5	72.08310389518738	fix_pre	0		120	3.0	2.5	/experiments/AOT/AOT_stimuli/rescaled_final/0824_rv.mp4	0.0	137.77572679519653	0.9999570846557617
5	73.08306097984314	movie	1		244	3.0	2.5	/experiments/AOT/AOT_stimuli/rescaled_final/0824_rv.mp4	0.0	138.7756838798523	2.5000510215759277
5	73.46600794792175	pulse	1	t		3.0	2.5	/experiments/AOT/AOT_stimuli/rescaled_final/0824_rv.mp4	0.0	139.1586308479309	
5	75.06651902198792	pulse	1	t		3.0	2.5	/experiments/AOT/AOT_stimuli/rescaled_final/0824_rv.mp4	0.0	140.75914192199707	
5	75.58311200141907	fix_post	2		12	3.0	2.5	/experiments/AOT/AOT_stimuli/rescaled_final/0824_rv.mp4	0.0	141.27573490142822	0.09995603561401367
6	75.68306803703308	fix_pre	0		119	4.0	2.5	/experiments/AOT/AOT_stimuli/rescaled_final/0470_rv.mp4	0.0	141.37569093704224	0.9916529655456543
6	76.66659998893738	pulse	0	t		4.0	2.5	/experiments/AOT/AOT_stimuli/rescaled_final/0470_rv.mp4	0.0	142.35922288894653	
6	76.67472100257874	movie	1		246	4.0	2.5	/experiments/AOT/AOT_stimuli/rescaled_final/0470_rv.mp4	0.0	142.3673439025879	2.508368968963623
6	78.26755905151367	pulse	1	t		4.0	2.5	/experiments/AOT/AOT_stimuli/rescaled_final/0470_rv.mp4	0.0	143.96018195152283	
6	79.18308997154236	fix_post	2		12	4.0	2.5	/experiments/AOT/AOT_stimuli/rescaled_final/0470_rv.mp4	0.0	144.8757128715515	0.09997701644897461
7	79.28306698799133	fix_pre	0		120	5.0	2.5	/experiments/AOT/AOT_stimuli/rescaled_final/0092_fw.mp4	0.0	144.9756898880005	0.9995551109313965
7	79.86658096313477	pulse	0	t		5.0	2.5	/experiments/AOT/AOT_stimuli/rescaled_final/0092_fw.mp4	0.0	145.55920386314392	
7	80.28262209892273	movie	1		243	5.0	2.5	/experiments/AOT/AOT_stimuli/rescaled_final/0092_fw.mp4	0.0	145.97524499893188	2.500415802001953
7	81.46653890609741	pulse	1	t		5.0	2.5	/experiments/AOT/AOT_stimuli/rescaled_final/0092_fw.mp4	0.0	147.15916180610657	
7	82.78303790092468	fix_post	2		12	5.0	2.5	/experiments/AOT/AOT_stimuli/rescaled_final/0092_fw.mp4	0.0	148.47566080093384	0.10000920295715332
8	82.88304710388184	fix_pre	0		120	6.0	2.5	/experiments/AOT/AOT_stimuli/rescaled_final/0379_fw.mp4	0.0	148.575670003891	0.9999878406524658
8	83.0664210319519	pulse	0	t		6.0	2.5	/experiments/AOT/AOT_stimuli/rescaled_final/0379_fw.mp4	0.0	148.75904393196106	
8	83.8830349445343	movie	1		244	6.0	2.5	/experiments/AOT/AOT_stimuli/rescaled_final/0379_fw.mp4	0.0	149.57565784454346	2.4995381832122803
8	84.66649889945984	pulse	1	t		6.0	2.5	/experiments/AOT/AOT_stimuli/rescaled_final/0379_fw.mp4	0.0	150.359121799469	
8	86.26638889312744	pulse	1	t		6.0	2.5	/experiments/AOT/AOT_stimuli/rescaled_final/0379_fw.mp4	0.0	151.9590117931366	
8	86.38257312774658	fix_post	2		12	6.0	2.5	/experiments/AOT/AOT_stimuli/rescaled_final/0379_fw.mp4	0.0	152.07519602775574	0.10052990913391113
9	86.4831030368805	fix_pre	0		120	7.0	2.5	blank	1.0	152.17572593688965	1.0001208782196045
9	87.4832239151001	movie	1		300	7.0	2.5	blank	1.0	153.17584681510925	2.4993441104888916
9	87.86629390716553	pulse	1	t		7.0	2.5	blank	1.0	153.55891680717468	
9	89.46654200553894	pulse	1	t		7.0	2.5	blank	1.0	155.1591649055481	
9	89.98256802558899	fix_post	2		12	7.0	2.5	blank	1.0	155.67519092559814	0.10040807723999023
10	90.08297610282898	fix_pre	0		119	8.0	2.5	/experiments/AOT/AOT_stimuli/rescaled_final/0925_fw.mp4	0.0	155.77559900283813	0.9917159080505371
10	91.066477060318	pulse	0	t		8.0	2.5	/experiments/AOT/AOT_stimuli/rescaled_final/0925_fw.mp4	0.0	156.75909996032715	
10	91.07469201087952	movie	1		247	8.0	2.5	/experiments/AOT/AOT_stimuli/rescaled_final/0925_fw.mp4	0.0	156.76731491088867	2.5079030990600586
10	92.66609692573547	pulse	1	t		8.0	2.5	/experiments/AOT/AOT_stimuli/rescaled_final/0925_fw.mp4	0.0	158.35871982574463	
10	93.58259510993958	fix_post	2		12	8.0	2.5	/experiments/AOT/AOT_stimuli/rescaled_final/0925_fw.mp4	0.0	159.27521800994873	0.10036396980285645
11	93.68295907974243	fix_pre	0		120	9.0	2.5	/experiments/AOT/AOT_stimuli/rescaled_final/1413_fw.mp4	0.0	159.3755819797516	1.0000009536743164
11	94.26644706726074	pulse	0	t		9.0	2.5	/experiments/AOT/AOT_stimuli/rescaled_final/1413_fw.mp4	0.0	159.9590699672699	
11	94.68296003341675	movie	1		246	9.0	2.5	/experiments/AOT/AOT_stimuli/rescaled_final/1413_fw.mp4	0.0	160.3755829334259	2.499595880508423
11	95.86647701263428	pulse	1	t		9.0	2.5	/experiments/AOT/AOT_stimuli/rescaled_final/1413_fw.mp4	0.0	161.55909991264343	
11	97.18255591392517	fix_post	2		12	9.0	2.5	/experiments/AOT/AOT_stimuli/rescaled_final/1413_fw.mp4	0.0	162.87517881393433	0.10036206245422363
12	97.2829179763794	fix_pre	0		120	10.0	2.5	/experiments/AOT/AOT_stimuli/rescaled_final/1122_fw.mp4	0.0	162.97554087638855	0.9999821186065674
12	97.46646189689636	pulse	0	t		10.0	2.5	/experiments/AOT/AOT_stimuli/rescaled_final/1122_fw.mp4	0.0	163.15908479690552	
12	98.28290009498596	movie	1		245	10.0	2.5	/experiments/AOT/AOT_stimuli/rescaled_final/1122_fw.mp4	0.0	163.97552299499512	2.500020980834961
12	99.06635212898254	pulse	1	t		10.0	2.5	/experiments/AOT/AOT_stimuli/rescaled_final/1122_fw.mp4	0.0	164.7589750289917	
12	100.67489409446716	pulse	1	t		10.0	2.5	/experiments/AOT/AOT_stimuli/rescaled_final/1122_fw.mp4	0.0	166.36751699447632	
12	100.78292107582092	fix_post	2		12	10.0	2.5	/experiments/AOT/AOT_stimuli/rescaled_final/1122_fw.mp4	0.0	166.47554397583008	0.10001087188720703
13	100.88293194770813	fix_pre	0		120	11.0	2.5	/experiments/AOT/AOT_stimuli/rescaled_final/0213_fw.mp4	0.0	166.57555484771729	0.9999890327453613
13	101.88292098045349	movie	1		244	11.0	2.5	/experiments/AOT/AOT_stimuli/rescaled_final/0213_fw.mp4	0.0	167.57554388046265	2.4995341300964355
13	102.2660620212555	pulse	1	t		11.0	2.5	/experiments/AOT/AOT_stimuli/rescaled_final/0213_fw.mp4	0.0	167.95868492126465	
13	103.86645603179932	pulse	1	t		11.0	2.5	/experiments/AOT/AOT_stimuli/rescaled_final/0213_fw.mp4	0.0	169.55907893180847	
13	104.38245511054993	fix_post	2		12	11.0	2.5	/experiments/AOT/AOT_stimuli/rescaled_final/0213_fw.mp4	0.0	170.07507801055908	0.10043001174926758
14	104.4828851222992	fix_pre	0		119	12.0	2.5	/experiments/AOT/AOT_stimuli/rescaled_final/1744_fw.mp4	0.0	170.17550802230835	0.9916939735412598
14	105.46640801429749	pulse	0	t		12.0	2.5	/experiments/AOT/AOT_stimuli/rescaled_final/1744_fw.mp4	0.0	171.15903091430664	
14	105.47457909584045	movie	1		244	12.0	2.5	/experiments/AOT/AOT_stimuli/rescaled_final/1744_fw.mp4	0.0	171.1672019958496	2.5082879066467285
14	107.06594896316528	pulse	1	t		12.0	2.5	/experiments/AOT/AOT_stimuli/rescaled_final/1744_fw.mp4	0.0	172.75857186317444	
14	107.98286700248718	fix_post	2		12	12.0	2.5	/experiments/AOT/AOT_stimuli/rescaled_final/1744_fw.mp4	0.0	173.67548990249634	0.10005807876586914
15	108.08292508125305	fix_pre	0		120	13.0	2.5	blank	1.0	173.7755479812622	0.9999599456787109
15	108.66651010513306	pulse	0	t		13.0	2.5	blank	1.0	174.3591330051422	
15	109.08288502693176	movie	1		300	13.0	2.5	blank	1.0	174.77550792694092	2.4996988773345947
15	110.26640391349792	pulse	1	t		13.0	2.5	blank	1.0	175.95902681350708	
15	111.58258390426636	fix_post	2		12	13.0	2.5	blank	1.0	177.2752068042755	0.10035014152526855
16	111.68293404579163	fix_pre	0		120	14.0	2.5	/experiments/AOT/AOT_stimuli/rescaled_final/0558_rv.mp4	0.0	177.37555694580078	0.9999899864196777
16	111.86638307571411	pulse	0	t		14.0	2.5	/experiments/AOT/AOT_stimuli/rescaled_final/0558_rv.mp4	0.0	177.55900597572327	
16	112.6829240322113	movie	1		245	14.0	2.5	/experiments/AOT/AOT_stimuli/rescaled_final/0558_rv.mp4	0.0	178.37554693222046	2.4999029636383057
16	113.46639704704285	pulse	1	t		14.0	2.5	/experiments/AOT/AOT_stimuli/rescaled_final/0558_rv.mp4	0.0	179.159019947052	
16	115.06599497795105	pulse	1	t		14.0	2.5	/experiments/AOT/AOT_stimuli/rescaled_final/0558_rv.mp4	0.0	180.7586178779602	
16	115.18282699584961	fix_post	2		12	14.0	2.5	/experiments/AOT/AOT_stimuli/rescaled_final/0558_rv.mp4	0.0	180.87544989585876	0.09966397285461426
17	115.28249096870422	fix_pre	0		120	15.0	2.5	/experiments/AOT/AOT_stimuli/rescaled_final/0925_rv.mp4	0.0	180.97511386871338	1.00040602684021
17	116.28289699554443	movie	1		245	15.0	2.5	/experiments/AOT/AOT_stimuli/rescaled_final/0925_rv.mp4	0.0	181.9755198955536	2.499562978744507
17	116.66613507270813	pulse	1	t		15.0	2.5	/experiments/AOT/AOT_stimuli/rescaled_final/0925_rv.mp4	0.0	182.35875797271729	
17	118.26632595062256	pulse	1	t		15.0	2.5	/experiments/AOT/AOT_stimuli/rescaled_final/0925_rv.mp4	0.0	183.9589488506317	
17	118.78245997428894	fix_post	2		12	15.0	2.5	/experiments/AOT/AOT_stimuli/rescaled_final/0925_rv.mp4	0.0	184.4750828742981	0.10036301612854004
18	118.88282299041748	fix_pre	0		119	16.0	2.5	/experiments/AOT/AOT_stimuli/rescaled_final/1656_rv.mp4	0.0	184.57544589042664	0.9916799068450928
18	119.86635899543762	pulse	0	t		16.0	2.5	/experiments/AOT/AOT_stimuli/rescaled_final/1656_rv.mp4	0.0	185.55898189544678	
18	119.87450289726257	movie	1		245	16.0	2.5	/experiments/AOT/AOT_stimuli/rescaled_final/1656_rv.mp4	0.0	185.56712579727173	2.5084831714630127
18	121.46621298789978	pulse	1	t		16.0	2.5	/experiments/AOT/AOT_stimuli/rescaled_final/1656_rv.mp4	0.0	187.15883588790894	
18	122.38298606872559	fix_post	2		12	16.0	2.5	/experiments/AOT/AOT_stimuli/rescaled_final/1656_rv.mp4	0.0	188.07560896873474	0.09985995292663574
19	122.48284602165222	fix_pre	0		120	17.0	2.5	/experiments/AOT/AOT_stimuli/rescaled_final/1439_rv.mp4	0.0	188.17546892166138	1.000101089477539
19	123.06631398200989	pulse	0	t		17.0	2.5	/experiments/AOT/AOT_stimuli/rescaled_final/1439_rv.mp4	0.0	188.75893688201904	
19	123.48294711112976	movie	1		242	17.0	2.5	/experiments/AOT/AOT_stimuli/rescaled_final/1439_rv.mp4	0.0	189.17557001113892	2.49948787689209
19	124.66645407676697	pulse	1	t		17.0	2.5	/experiments/AOT/AOT_stimuli/rescaled_final/1439_rv.mp4	0.0	190.35907697677612	
19	125.98243498802185	fix_post	2		12	17.0	2.5	/experiments/AOT/AOT_stimuli/rescaled_final/1439_rv.mp4	0.0	191.675057888031	0.10044693946838379
20	126.08288192749023	fix_pre	0		120	18.0	2.5	/experiments/AOT/AOT_stimuli/rescaled_final/0248_fw.mp4	0.0	191.7755048274994	0.9999270439147949
20	126.26636910438538	pulse	0	t		18.0	2.5	/experiments/AOT/AOT_stimuli/rescaled_final/0248_fw.mp4	0.0	191.95899200439453	
20	127.08280897140503	movie	1		244	18.0	2.5	/experiments/AOT/AOT_stimuli/rescaled_final/0248_fw.mp4	0.0	192.77543187141418	2.4999799728393555
20	127.86631298065186	pulse	1	t		18.0	2.5	/experiments/AOT/AOT_stimuli/rescaled_final/0248_fw.mp4	0.0	193.558935880661	
20	129.4747850894928	pulse	1	t		18.0	2.5	/experiments/AOT/AOT_stimuli/rescaled_final/0248_fw.mp4	0.0	195.16740798950195	
20	129.58278894424438	fix_post	2		12	18.0	2.5	/experiments/AOT/AOT_stimuli/rescaled_final/0248_fw.mp4	0.0	195.27541184425354	0.09998011589050293
21	129.6827690601349	fix_pre	0		120	19.0	2.5	blank	1.0	195.37539196014404	1.0000419616699219
21	130.6828110218048	movie	1		300	19.0	2.5	blank	1.0	196.37543392181396	2.50007700920105
21	131.06632590293884	pulse	1	t		19.0	2.5	blank	1.0	196.758948802948	
21	132.66640090942383	pulse	1	t		19.0	2.5	blank	1.0	198.35902380943298	
21	133.18288803100586	fix_post	2		12	19.0	2.5	blank	1.0	198.87551093101501	0.09992694854736328
22	133.28281497955322	fix_pre	0		119	20.0	2.5	/experiments/AOT/AOT_stimuli/rescaled_final/1429_fw.mp4	0.0	198.97543787956238	0.9916551113128662
22	134.26630902290344	pulse	0	t		20.0	2.5	/experiments/AOT/AOT_stimuli/rescaled_final/1429_fw.mp4	0.0	199.9589319229126	
22	134.2744700908661	movie	1		244	20.0	2.5	/experiments/AOT/AOT_stimuli/rescaled_final/1429_fw.mp4	0.0	199.96709299087524	2.5079898834228516
22	135.8659589290619	pulse	1	t		20.0	2.5	/experiments/AOT/AOT_stimuli/rescaled_final/1429_fw.mp4	0.0	201.55858182907104	
22	136.78245997428894	fix_post	2		12	20.0	2.5	/experiments/AOT/AOT_stimuli/rescaled_final/1429_fw.mp4	0.0	202.4750828742981	0.10036396980285645
23	136.8828239440918	fix_pre	0		120	21.0	2.5	/experiments/AOT/AOT_stimuli/rescaled_final/1372_rv.mp4	0.0	202.57544684410095	1.0000090599060059
23	137.46628212928772	pulse	0	t		21.0	2.5	/experiments/AOT/AOT_stimuli/rescaled_final/1372_rv.mp4	0.0	203.15890502929688	
23	137.8828330039978	movie	1		244	21.0	2.5	/experiments/AOT/AOT_stimuli/rescaled_final/1372_rv.mp4	0.0	203.57545590400696	2.4999849796295166
23	139.06647610664368	pulse	1	t		21.0	2.5	/experiments/AOT/AOT_stimuli/rescaled_final/1372_rv.mp4	0.0	204.75909900665283	
23	140.38281798362732	fix_post	2		12	21.0	2.5	/experiments/AOT/AOT_stimuli/rescaled_final/1372_rv.mp4	0.0	206.07544088363647	0.10003900527954102
24	140.48285698890686	fix_pre	0		120	22.0	2.5	/experiments/AOT/AOT_stimuli/rescaled_final/1439_fw.mp4	0.0	206.17547988891602	0.9995689392089844
24	140.66631603240967	pulse	0	t		22.0	2.5	/experiments/AOT/AOT_stimuli/rescaled_final/1439_fw.mp4	0.0	206.35893893241882	
24	141.48242592811584	movie	1		244	22.0	2.5	/experiments/AOT/AOT_stimuli/rescaled_final/1439_fw.mp4	0.0	207.175048828125	2.5008931159973145
24	142.2659010887146	pulse	1	t		22.0	2.5	/experiments/AOT/AOT_stimuli/rescaled_final/1439_fw.mp4	0.0	207.95852398872375	
24	143.86615991592407	pulse	1	t		22.0	2.5	/experiments/AOT/AOT_stimuli/rescaled_final/1439_fw.mp4	0.0	209.55878281593323	
24	143.98331904411316	fix_post	2		12	22.0	2.5	/experiments/AOT/AOT_stimuli/rescaled_final/1439_fw.mp4	0.0	209.67594194412231	0.09937286376953125
25	144.0826919078827	fix_pre	0		120	23.0	2.5	/experiments/AOT/AOT_stimuli/rescaled_final/2073_fw.mp4	0.0	209.77531480789185	1.0001301765441895
25	145.08282208442688	movie	1		246	23.0	2.5	/experiments/AOT/AOT_stimuli/rescaled_final/2073_fw.mp4	0.0	210.77544498443604	2.4995908737182617
25	145.46574902534485	pulse	1	t		23.0	2.5	/experiments/AOT/AOT_stimuli/rescaled_final/2073_fw.mp4	0.0	211.158371925354	
25	147.06625699996948	pulse	1	t		23.0	2.5	/experiments/AOT/AOT_stimuli/rescaled_final/2073_fw.mp4	0.0	212.75887989997864	
25	147.58241295814514	fix_post	2		12	23.0	2.5	/experiments/AOT/AOT_stimuli/rescaled_final/2073_fw.mp4	0.0	213.2750358581543	0.1003561019897461
26	147.6827690601349	fix_pre	0		119	24.0	2.5	/experiments/AOT/AOT_stimuli/rescaled_final/1656_fw.mp4	0.0	213.37539196014404	0.9916629791259766
26	148.66619491577148	pulse	0	t		24.0	2.5	/experiments/AOT/AOT_stimuli/rescaled_final/1656_fw.mp4	0.0	214.35881781578064	
26	148.67443203926086	movie	1		244	24.0	2.5	/experiments/AOT/AOT_stimuli/rescaled_final/1656_fw.mp4	0.0	214.36705493927002	2.507875919342041
26	150.2663860321045	pulse	1	t		24.0	2.5	/experiments/AOT/AOT_stimuli/rescaled_final/1656_fw.mp4	0.0	215.95900893211365	
26	151.1823079586029	fix_post	2		12	24.0	2.5	/experiments/AOT/AOT_stimuli/rescaled_final/1656_fw.mp4	0.0	216.87493085861206	0.10036611557006836
27	151.28267407417297	fix_pre	0		120	25.0	2.5	/experiments/AOT/AOT_stimuli/rescaled_final/0861_rv.mp4	0.0	216.97529697418213	1.0000519752502441
27	151.86627101898193	pulse	0	t		25.0	2.5	/experiments/AOT/AOT_stimuli/rescaled_final/0861_rv.mp4	0.0	217.5588939189911	
27	152.28272604942322	movie	1		243	25.0	2.5	/experiments/AOT/AOT_stimuli/rescaled_final/0861_rv.mp4	0.0	217.97534894943237	2.499880075454712
27	153.46625590324402	pulse	1	t		25.0	2.5	/experiments/AOT/AOT_stimuli/rescaled_final/0861_rv.mp4	0.0	219.15887880325317	
27	154.78260612487793	fix_post	2		12	25.0	2.5	/experiments/AOT/AOT_stimuli/rescaled_final/0861_rv.mp4	0.0	220.47522902488708	0.10007596015930176
28	154.88268208503723	fix_pre	0		120	26.0	2.5	blank	1.0	220.5753049850464	1.000013828277588
28	155.06616497039795	pulse	0	t		26.0	2.5	blank	1.0	220.7587878704071	
28	155.88269591331482	movie	1		300	26.0	2.5	blank	1.0	221.57531881332397	2.500014066696167
28	156.66611409187317	pulse	1	t		26.0	2.5	blank	1.0	222.35873699188232	
28	158.2661828994751	pulse	1	t		26.0	2.5	blank	1.0	223.95880579948425	
28	158.382709980011	fix_post	2		12	26.0	2.5	blank	1.0	224.07533288002014	0.09995508193969727
29	158.48266506195068	fix_pre	0		120	27.0	2.5	/experiments/AOT/AOT_stimuli/rescaled_final/1962_rv.mp4	0.0	224.17528796195984	1.000093936920166
29	159.48275899887085	movie	1		247	27.0	2.5	/experiments/AOT/AOT_stimuli/rescaled_final/1962_rv.mp4	0.0	225.17538189888	2.4999539852142334
29	159.86571407318115	pulse	1	t		27.0	2.5	/experiments/AOT/AOT_stimuli/rescaled_final/1962_rv.mp4	0.0	225.5583369731903	
29	161.46615290641785	pulse	1	t		27.0	2.5	/experiments/AOT/AOT_stimuli/rescaled_final/1962_rv.mp4	0.0	227.158775806427	
29	161.98271298408508	fix_post	2		12	27.0	2.5	/experiments/AOT/AOT_stimuli/rescaled_final/1962_rv.mp4	0.0	227.67533588409424	0.10001611709594727
30	162.08272910118103	fix_pre	0		119	28.0	2.5	/experiments/AOT/AOT_stimuli/rescaled_final/0155_fw.mp4	0.0	227.77535200119019	0.9915978908538818
30	163.06616806983948	pulse	0	t		28.0	2.5	/experiments/AOT/AOT_stimuli/rescaled_final/0155_fw.mp4	0.0	228.75879096984863	
30	163.0743269920349	movie	1		246	28.0	2.5	/experiments/AOT/AOT_stimuli/rescaled_final/0155_fw.mp4	0.0	228.76694989204407	2.5084879398345947
30	164.6657269001007	pulse	1	t		28.0	2.5	/experiments/AOT/AOT_stimuli/rescaled_final/0155_fw.mp4	0.0	230.35834980010986	
30	165.5828149318695	fix_post	2		12	28.0	2.5	/experiments/AOT/AOT_stimuli/rescaled_final/0155_fw.mp4	0.0	231.27543783187866	0.09988808631896973
31	165.68270301818848	fix_pre	0		120	29.0	2.5	/experiments/AOT/AOT_stimuli/rescaled_final/0711_fw.mp4	0.0	231.37532591819763	0.999798059463501
31	166.2663540840149	pulse	0	t		29.0	2.5	/experiments/AOT/AOT_stimuli/rescaled_final/0711_fw.mp4	0.0	231.95897698402405	
31	166.68250107765198	movie	1		244	29.0	2.5	/experiments/AOT/AOT_stimuli/rescaled_final/0711_fw.mp4	0.0	232.37512397766113	2.500211000442505
31	167.8661699295044	pulse	1	t		29.0	2.5	/experiments/AOT/AOT_stimuli/rescaled_final/0711_fw.mp4	0.0	233.55879282951355	
31	169.18271207809448	fix_post	2		12	29.0	2.5	/experiments/AOT/AOT_stimuli/rescaled_final/0711_fw.mp4	0.0	234.87533497810364	0.09993600845336914
32	169.28264808654785	fix_pre	0		120	30.0	2.5	/experiments/AOT/AOT_stimuli/rescaled_final/1213_fw.mp4	0.0	234.975270986557	1.0000109672546387
32	169.46618008613586	pulse	0	t		30.0	2.5	/experiments/AOT/AOT_stimuli/rescaled_final/1213_fw.mp4	0.0	235.15880298614502	
32	170.2826590538025	movie	1		244	30.0	2.5	/experiments/AOT/AOT_stimuli/rescaled_final/1213_fw.mp4	0.0	235.97528195381165	2.5000178813934326
32	171.06613993644714	pulse	1	t		30.0	2.5	/experiments/AOT/AOT_stimuli/rescaled_final/1213_fw.mp4	0.0	236.7587628364563	
32	172.6746699810028	pulse	1	t		30.0	2.5	/experiments/AOT/AOT_stimuli/rescaled_final/1213_fw.mp4	0.0	238.36729288101196	
32	172.78267693519592	fix_post	2		12	30.0	2.5	/experiments/AOT/AOT_stimuli/rescaled_final/1213_fw.mp4	0.0	238.47529983520508	0.09997415542602539
33	172.88265109062195	fix_pre	0		120	31.0	2.5	/experiments/AOT/AOT_stimuli/rescaled_final/1210_rv.mp4	0.0	238.5752739906311	1.0000088214874268
33	173.88265991210938	movie	1		243	31.0	2.5	/experiments/AOT/AOT_stimuli/rescaled_final/1210_rv.mp4	0.0	239.57528281211853	2.4999680519104004
33	174.2659740447998	pulse	1	t		31.0	2.5	/experiments/AOT/AOT_stimuli/rescaled_final/1210_rv.mp4	0.0	239.95859694480896	
33	175.86616110801697	pulse	1	t		31.0	2.5	/experiments/AOT/AOT_stimuli/rescaled_final/1210_rv.mp4	0.0	241.55878400802612	
33	176.38262796401978	fix_post	2		12	31.0	2.5	/experiments/AOT/AOT_stimuli/rescaled_final/1210_rv.mp4	0.0	242.07525086402893	0.10001993179321289
34	176.482647895813	fix_pre	0		119	32.0	2.5	/experiments/AOT/AOT_stimuli/rescaled_final/0651_rv.mp4	0.0	242.17527079582214	0.9916021823883057
34	177.466157913208	pulse	0	t		32.0	2.5	/experiments/AOT/AOT_stimuli/rescaled_final/0651_rv.mp4	0.0	243.15878081321716	
34	177.4742500782013	movie	1		244	32.0	2.5	/experiments/AOT/AOT_stimuli/rescaled_final/0651_rv.mp4	0.0	243.16687297821045	2.5079078674316406
34	179.07443499565125	pulse	1	t		32.0	2.5	/experiments/AOT/AOT_stimuli/rescaled_final/0651_rv.mp4	0.0	244.7670578956604	
34	179.98215794563293	fix_post	2		12	32.0	2.5	/experiments/AOT/AOT_stimuli/rescaled_final/0651_rv.mp4	0.0	245.6747808456421	0.10043597221374512
35	180.08259391784668	fix_pre	0		120	33.0	2.5	/experiments/AOT/AOT_stimuli/rescaled_final/0381_fw.mp4	0.0	245.77521681785583	1.0000340938568115
35	180.66614294052124	pulse	0	t		33.0	2.5	/experiments/AOT/AOT_stimuli/rescaled_final/0381_fw.mp4	0.0	246.3587658405304	
35	181.0826280117035	movie	1		246	33.0	2.5	/experiments/AOT/AOT_stimuli/rescaled_final/0381_fw.mp4	0.0	246.77525091171265	2.500025987625122
35	182.26624703407288	pulse	1	t		33.0	2.5	/experiments/AOT/AOT_stimuli/rescaled_final/0381_fw.mp4	0.0	247.95886993408203	
35	183.5826539993286	fix_post	2		12	33.0	2.5	/experiments/AOT/AOT_stimuli/rescaled_final/0381_fw.mp4	0.0	249.27527689933777	0.09998106956481934
36	183.68263506889343	fix_pre	0		120	34.0	2.5	/experiments/AOT/AOT_stimuli/rescaled_final/0466_rv.mp4	0.0	249.3752579689026	0.9995460510253906
36	183.86612010002136	pulse	0	t		34.0	2.5	/experiments/AOT/AOT_stimuli/rescaled_final/0466_rv.mp4	0.0	249.55874300003052	
36	184.68218111991882	movie	1		245	34.0	2.5	/experiments/AOT/AOT_stimuli/rescaled_final/0466_rv.mp4	0.0	250.37480401992798	2.5004608631134033
36	185.46617603302002	pulse	1	t		34.0	2.5	/experiments/AOT/AOT_stimuli/rescaled_final/0466_rv.mp4	0.0	251.15879893302917	
36	187.06563091278076	pulse	1	t		34.0	2.5	/experiments/AOT/AOT_stimuli/rescaled_final/0466_rv.mp4	0.0	252.75825381278992	
36	187.18264198303223	fix_post	2		12	34.0	2.5	/experiments/AOT/AOT_stimuli/rescaled_final/0466_rv.mp4	0.0	252.87526488304138	0.10003495216369629
37	187.28267693519592	fix_pre	0		120	35.0	2.5	blank	1.0	252.97529983520508	0.9998271465301514
37	188.28250408172607	movie	1		300	35.0	2.5	blank	1.0	253.97512698173523	2.5001368522644043
37	188.66598200798035	pulse	1	t		35.0	2.5	blank	1.0	254.3586049079895	
37	190.26603507995605	pulse	1	t		35.0	2.5	blank	1.0	255.9586579799652	
37	190.78264093399048	fix_post	2		12	35.0	2.5	blank	1.0	256.47526383399963	0.09997296333312988
38	190.8826138973236	fix_pre	0		119	36.0	2.5	/experiments/AOT/AOT_stimuli/rescaled_final/1654_fw.mp4	0.0	256.57523679733276	0.9915800094604492
38	191.86604404449463	pulse	0	t		36.0	2.5	/experiments/AOT/AOT_stimuli/rescaled_final/1654_fw.mp4	0.0	257.5586669445038	
38	191.87419390678406	movie	1		245	36.0	2.5	/experiments/AOT/AOT_stimuli/rescaled_final/1654_fw.mp4	0.0	257.5668168067932	2.508395195007324
38	193.46584606170654	pulse	1	t		36.0	2.5	/experiments/AOT/AOT_stimuli/rescaled_final/1654_fw.mp4	0.0	259.1584689617157	
38	194.38258910179138	fix_post	2		12	36.0	2.5	/experiments/AOT/AOT_stimuli/rescaled_final/1654_fw.mp4	0.0	260.07521200180054	0.09994196891784668
39	194.48253107070923	fix_pre	0		120	37.0	2.5	/experiments/AOT/AOT_stimuli/rescaled_final/1122_rv.mp4	0.0	260.1751539707184	1.0000250339508057
39	195.0660309791565	pulse	0	t		37.0	2.5	/experiments/AOT/AOT_stimuli/rescaled_final/1122_rv.mp4	0.0	260.75865387916565	
39	195.48255610466003	movie	1		246	37.0	2.5	/experiments/AOT/AOT_stimuli/rescaled_final/1122_rv.mp4	0.0	261.1751790046692	2.4996399879455566
39	196.66564893722534	pulse	1	t		37.0	2.5	/experiments/AOT/AOT_stimuli/rescaled_final/1122_rv.mp4	0.0	262.3582718372345	
39	197.9821960926056	fix_post	2		12	37.0	2.5	/experiments/AOT/AOT_stimuli/rescaled_final/1122_rv.mp4	0.0	263.67481899261475	0.10036182403564453
40	198.08255791664124	fix_pre	0		120	38.0	2.5	/experiments/AOT/AOT_stimuli/rescaled_final/1210_fw.mp4	0.0	263.7751808166504	0.9997851848602295
40	198.26569294929504	pulse	0	t		38.0	2.5	/experiments/AOT/AOT_stimuli/rescaled_final/1210_fw.mp4	0.0	263.9583158493042	
40	199.08234310150146	movie	1		242	38.0	2.5	/experiments/AOT/AOT_stimuli/rescaled_final/1210_fw.mp4	0.0	264.7749660015106	2.4997339248657227
40	199.86594796180725	pulse	1	t		38.0	2.5	/experiments/AOT/AOT_stimuli/rescaled_final/1210_fw.mp4	0.0	265.5585708618164	
40	201.47445797920227	pulse	1	t		38.0	2.5	/experiments/AOT/AOT_stimuli/rescaled_final/1210_fw.mp4	0.0	267.1670808792114	
40	201.5820770263672	fix_post	2		12	38.0	2.5	/experiments/AOT/AOT_stimuli/rescaled_final/1210_fw.mp4	0.0	267.27469992637634	0.10046887397766113
41	201.68254590034485	fix_pre	0		120	39.0	2.5	/experiments/AOT/AOT_stimuli/rescaled_final/1912_rv.mp4	0.0	267.375168800354	1.0000550746917725
41	202.68260097503662	movie	1		247	39.0	2.5	/experiments/AOT/AOT_stimuli/rescaled_final/1912_rv.mp4	0.0	268.3752238750458	2.4995200634002686
41	203.06563210487366	pulse	1	t		39.0	2.5	/experiments/AOT/AOT_stimuli/rescaled_final/1912_rv.mp4	0.0	268.7582550048828	
41	204.66597890853882	pulse	1	t		39.0	2.5	/experiments/AOT/AOT_stimuli/rescaled_final/1912_rv.mp4	0.0	270.358601808548	
41	205.1821210384369	fix_post	2		12	39.0	2.5	/experiments/AOT/AOT_stimuli/rescaled_final/1912_rv.mp4	0.0	270.87474393844604	0.10032391548156738
42	205.28244495391846	fix_pre	0		119	40.0	2.5	blank	1.0	270.9750678539276	0.9917020797729492
42	206.26594805717468	pulse	0	t		40.0	2.5	blank	1.0	271.95857095718384	
42	206.2741470336914	movie	1		301	40.0	2.5	blank	1.0	271.96676993370056	2.50833797454834
42	207.86592411994934	pulse	1	t		40.0	2.5	blank	1.0	273.5585470199585	
42	208.78248500823975	fix_post	2		12	40.0	2.5	blank	1.0	274.4751079082489	0.09999489784240723
43	208.88247990608215	fix_pre	0		120	41.0	2.5	/experiments/AOT/AOT_stimuli/rescaled_final/0466_fw.mp4	0.0	274.5751028060913	1.000014066696167
43	209.46616911888123	pulse	0	t		41.0	2.5	/experiments/AOT/AOT_stimuli/rescaled_final/0466_fw.mp4	0.0	275.1587920188904	
43	209.88249397277832	movie	1		245	41.0	2.5	/experiments/AOT/AOT_stimuli/rescaled_final/0466_fw.mp4	0.0	275.5751168727875	2.5000579357147217
43	211.06608605384827	pulse	1	t		41.0	2.5	/experiments/AOT/AOT_stimuli/rescaled_final/0466_fw.mp4	0.0	276.7587089538574	
43	212.38255190849304	fix_post	2		12	41.0	2.5	/experiments/AOT/AOT_stimuli/rescaled_final/0466_fw.mp4	0.0	278.0751748085022	0.09989309310913086
44	212.48244500160217	fix_pre	0		120	42.0	2.5	/experiments/AOT/AOT_stimuli/rescaled_final/1520_fw.mp4	0.0	278.1750679016113	0.9999821186065674
44	212.66606092453003	pulse	0	t		42.0	2.5	/experiments/AOT/AOT_stimuli/rescaled_final/1520_fw.mp4	0.0	278.3586838245392	
44	213.48242712020874	movie	1		244	42.0	2.5	/experiments/AOT/AOT_stimuli/rescaled_final/1520_fw.mp4	0.0	279.1750500202179	2.499645948410034
44	214.26606392860413	pulse	1	t		42.0	2.5	/experiments/AOT/AOT_stimuli/rescaled_final/1520_fw.mp4	0.0	279.9586868286133	
44	215.87440490722656	pulse	1	t		42.0	2.5	/experiments/AOT/AOT_stimuli/rescaled_final/1520_fw.mp4	0.0	281.5670278072357	
44	215.98207306861877	fix_post	2		12	42.0	2.5	/experiments/AOT/AOT_stimuli/rescaled_final/1520_fw.mp4	0.0	281.67469596862793	0.1003570556640625
45	216.08243012428284	fix_pre	0		120	43.0	2.5	/experiments/AOT/AOT_stimuli/rescaled_final/1640_rv.mp4	0.0	281.775053024292	0.9996287822723389
45	217.08205890655518	movie	1		242	43.0	2.5	/experiments/AOT/AOT_stimuli/rescaled_final/1640_rv.mp4	0.0	282.77468180656433	2.500447988510132
45	217.46549701690674	pulse	1	t		43.0	2.5	/experiments/AOT/AOT_stimuli/rescaled_final/1640_rv.mp4	0.0	283.1581199169159	
45	219.06586289405823	pulse	1	t		43.0	2.5	/experiments/AOT/AOT_stimuli/rescaled_final/1640_rv.mp4	0.0	284.7584857940674	
45	219.5825068950653	fix_post	2		12	43.0	2.5	/experiments/AOT/AOT_stimuli/rescaled_final/1640_rv.mp4	0.0	285.27512979507446	0.10000205039978027
46	219.6825089454651	fix_pre	0		119	44.0	2.5	/experiments/AOT/AOT_stimuli/rescaled_final/1912_fw.mp4	0.0	285.37513184547424	0.9915859699249268
46	220.66586995124817	pulse	0	t		44.0	2.5	/experiments/AOT/AOT_stimuli/rescaled_final/1912_fw.mp4	0.0	286.3584928512573	
46	220.67409491539001	movie	1		247	44.0	2.5	/experiments/AOT/AOT_stimuli/rescaled_final/1912_fw.mp4	0.0	286.36671781539917	2.508419990539551
46	222.26554703712463	pulse	1	t		44.0	2.5	/experiments/AOT/AOT_stimuli/rescaled_final/1912_fw.mp4	0.0	287.9581699371338	
46	223.18251490592957	fix_post	2		12	44.0	2.5	/experiments/AOT/AOT_stimuli/rescaled_final/1912_fw.mp4	0.0	288.8751378059387	0.09996414184570312
47	223.28247904777527	fix_pre	0		120	45.0	2.5	/experiments/AOT/AOT_stimuli/rescaled_final/0645_fw.mp4	0.0	288.9751019477844	1.000074863433838
47	223.86587691307068	pulse	0	t		45.0	2.5	/experiments/AOT/AOT_stimuli/rescaled_final/0645_fw.mp4	0.0	289.55849981307983	
47	224.2825539112091	movie	1		247	45.0	2.5	/experiments/AOT/AOT_stimuli/rescaled_final/0645_fw.mp4	0.0	289.97517681121826	2.499821186065674
47	225.46597003936768	pulse	1	t		45.0	2.5	/experiments/AOT/AOT_stimuli/rescaled_final/0645_fw.mp4	0.0	291.15859293937683	
47	226.78237509727478	fix_post	2		12	45.0	2.5	/experiments/AOT/AOT_stimuli/rescaled_final/0645_fw.mp4	0.0	292.47499799728394	0.10008001327514648
48	226.88245511054993	fix_pre	0		120	46.0	2.5	/experiments/AOT/AOT_stimuli/rescaled_final/0249_rv.mp4	0.0	292.5750780105591	1.0000219345092773
48	227.0659019947052	pulse	0	t		46.0	2.5	/experiments/AOT/AOT_stimuli/rescaled_final/0249_rv.mp4	0.0	292.75852489471436	
48	227.8824770450592	movie	1		245	46.0	2.5	/experiments/AOT/AOT_stimuli/rescaled_final/0249_rv.mp4	0.0	293.57509994506836	2.499856948852539
48	228.6658980846405	pulse	1	t		46.0	2.5	/experiments/AOT/AOT_stimuli/rescaled_final/0249_rv.mp4	0.0	294.35852098464966	
48	230.27427005767822	pulse	1	t		46.0	2.5	/experiments/AOT/AOT_stimuli/rescaled_final/0249_rv.mp4	0.0	295.9668929576874	
48	230.38233399391174	fix_post	2		12	46.0	2.5	/experiments/AOT/AOT_stimuli/rescaled_final/0249_rv.mp4	0.0	296.0749568939209	0.10006999969482422
49	230.48240399360657	fix_pre	0		120	47.0	2.5	blank	1.0	296.1750268936157	0.9999690055847168
49	231.48237299919128	movie	1		300	47.0	2.5	blank	1.0	297.17499589920044	2.500009059906006
49	231.8659029006958	pulse	1	t		47.0	2.5	blank	1.0	297.55852580070496	
49	233.46587491035461	pulse	1	t		47.0	2.5	blank	1.0	299.15849781036377	
49	233.9823820590973	fix_post	2		12	47.0	2.5	blank	1.0	299.67500495910645	0.09995102882385254
50	234.08233308792114	fix_pre	0		119	48.0	2.5	/experiments/AOT/AOT_stimuli/rescaled_final/2010_rv.mp4	0.0	299.7749559879303	0.9917728900909424
50	235.06593012809753	pulse	0	t		48.0	2.5	/experiments/AOT/AOT_stimuli/rescaled_final/2010_rv.mp4	0.0	300.7585530281067	
50	235.07410597801208	movie	1		245	48.0	2.5	/experiments/AOT/AOT_stimuli/rescaled_final/2010_rv.mp4	0.0	300.76672887802124	2.508302927017212
50	236.66612601280212	pulse	1	t		48.0	2.5	/experiments/AOT/AOT_stimuli/rescaled_final/2010_rv.mp4	0.0	302.3587489128113	
50	237.5824089050293	fix_post	2		12	48.0	2.5	/experiments/AOT/AOT_stimuli/rescaled_final/2010_rv.mp4	0.0	303.27503180503845	0.09993219375610352
51	237.6823410987854	fix_pre	0		120	49.0	2.5	/experiments/AOT/AOT_stimuli/rescaled_final/0163_rv.mp4	0.0	303.37496399879456	0.9996650218963623
51	238.26582312583923	pulse	0	t		49.0	2.5	/experiments/AOT/AOT_stimuli/rescaled_final/0163_rv.mp4	0.0	303.9584460258484	
51	238.68200612068176	movie	1		243	49.0	2.5	/experiments/AOT/AOT_stimuli/rescaled_final/0163_rv.mp4	0.0	304.3746290206909	2.499882936477661
51	239.86593508720398	pulse	1	t		49.0	2.5	/experiments/AOT/AOT_stimuli/rescaled_final/0163_rv.mp4	0.0	305.55855798721313	
51	241.18188905715942	fix_post	2		12	49.0	2.5	/experiments/AOT/AOT_stimuli/rescaled_final/0163_rv.mp4	0.0	306.8745119571686	0.10054898262023926
52	241.28243803977966	fix_pre	0		120	50.0	2.5	/experiments/AOT/AOT_stimuli/rescaled_final/0048_fw.mp4	0.0	306.9750609397888	0.9999940395355225
52	241.46601796150208	pulse	0	t		50.0	2.5	/experiments/AOT/AOT_stimuli/rescaled_final/0048_fw.mp4	0.0	307.15864086151123	
52	242.28243207931519	movie	1		242	50.0	2.5	/experiments/AOT/AOT_stimuli/rescaled_final/0048_fw.mp4	0.0	307.97505497932434	2.4995999336242676
52	243.06589102745056	pulse	1	t		50.0	2.5	/experiments/AOT/AOT_stimuli/rescaled_final/0048_fw.mp4	0.0	308.7585139274597	
52	244.6742479801178	pulse	1	t		50.0	2.5	/experiments/AOT/AOT_stimuli/rescaled_final/0048_fw.mp4	0.0	310.36687088012695	
52	244.78203201293945	fix_post	2		12	50.0	2.5	/experiments/AOT/AOT_stimuli/rescaled_final/0048_fw.mp4	0.0	310.4746549129486	0.1004180908203125
53	244.88245010375977	fix_pre	0		120	51.0	2.5	/experiments/AOT/AOT_stimuli/rescaled_final/1744_fw.mp4	0.0	310.5750730037689	0.9999020099639893
53	245.88235211372375	movie	1		243	51.0	2.5	/experiments/AOT/AOT_stimuli/rescaled_final/1744_fw.mp4	0.0	311.5749750137329	2.500058889389038
53	246.2657871246338	pulse	1	t		51.0	2.5	/experiments/AOT/AOT_stimuli/rescaled_final/1744_fw.mp4	0.0	311.95841002464294	
53	247.86580801010132	pulse	1	t		51.0	2.5	/experiments/AOT/AOT_stimuli/rescaled_final/1744_fw.mp4	0.0	313.5584309101105	
53	248.3824110031128	fix_post	2		12	51.0	2.5	/experiments/AOT/AOT_stimuli/rescaled_final/1744_fw.mp4	0.0	314.07503390312195	0.09949398040771484
54	248.4819049835205	fix_pre	0		119	52.0	2.5	/experiments/AOT/AOT_stimuli/rescaled_final/1282_rv.mp4	0.0	314.17452788352966	0.9920430183410645
54	249.46595096588135	pulse	0	t		52.0	2.5	/experiments/AOT/AOT_stimuli/rescaled_final/1282_rv.mp4	0.0	315.1585738658905	
54	249.47394800186157	movie	1		245	52.0	2.5	/experiments/AOT/AOT_stimuli/rescaled_final/1282_rv.mp4	0.0	315.1665709018707	2.5083730220794678
54	251.0659499168396	pulse	1	t		52.0	2.5	/experiments/AOT/AOT_stimuli/rescaled_final/1282_rv.mp4	0.0	316.75857281684875	
54	251.98232102394104	fix_post	2		12	52.0	2.5	/experiments/AOT/AOT_stimuli/rescaled_final/1282_rv.mp4	0.0	317.6749439239502	0.0999760627746582
55	252.0822970867157	fix_pre	0		120	53.0	2.5	/experiments/AOT/AOT_stimuli/rescaled_final/0445_rv.mp4	0.0	317.77491998672485	0.9996488094329834
55	252.66585111618042	pulse	0	t		53.0	2.5	/experiments/AOT/AOT_stimuli/rescaled_final/0445_rv.mp4	0.0	318.3584740161896	
55	253.08194589614868	movie	1		245	53.0	2.5	/experiments/AOT/AOT_stimuli/rescaled_final/0445_rv.mp4	0.0	318.77456879615784	2.5002641677856445
55	254.26549911499023	pulse	1	t		53.0	2.5	/experiments/AOT/AOT_stimuli/rescaled_final/0445_rv.mp4	0.0	319.9581220149994	
55	255.58221006393433	fix_post	2		12	53.0	2.5	/experiments/AOT/AOT_stimuli/rescaled_final/0445_rv.mp4	0.0	321.2748329639435	0.09990596771240234
56	255.68211603164673	fix_pre	0		120	54.0	2.5	/experiments/AOT/AOT_stimuli/rescaled_final/0172_fw.mp4	0.0	321.3747389316559	1.0002429485321045
56	255.86563396453857	pulse	0	t		54.0	2.5	/experiments/AOT/AOT_stimuli/rescaled_final/0172_fw.mp4	0.0	321.55825686454773	
56	256.68235898017883	movie	1		246	54.0	2.5	/experiments/AOT/AOT_stimuli/rescaled_final/0172_fw.mp4	0.0	322.374981880188	2.499979019165039
56	257.4666929244995	pulse	1	t		54.0	2.5	/experiments/AOT/AOT_stimuli/rescaled_final/0172_fw.mp4	0.0	323.15931582450867	
56	259.07408905029297	pulse	1	t		54.0	2.5	/experiments/AOT/AOT_stimuli/rescaled_final/0172_fw.mp4	0.0	324.7667119503021	
56	259.1823379993439	fix_post	2		12	54.0	2.5	/experiments/AOT/AOT_stimuli/rescaled_final/0172_fw.mp4	0.0	324.874960899353	0.09998798370361328
57	259.2823259830475	fix_pre	0		120	55.0	2.5	/experiments/AOT/AOT_stimuli/rescaled_final/2124_rv.mp4	0.0	324.97494888305664	0.9999549388885498
57	260.28228092193604	movie	1		245	55.0	2.5	/experiments/AOT/AOT_stimuli/rescaled_final/2124_rv.mp4	0.0	325.9749038219452	2.500042200088501
57	260.66671895980835	pulse	1	t		55.0	2.5	/experiments/AOT/AOT_stimuli/rescaled_final/2124_rv.mp4	0.0	326.3593418598175	
57	262.2657001018524	pulse	1	t		55.0	2.5	/experiments/AOT/AOT_stimuli/rescaled_final/2124_rv.mp4	0.0	327.9583230018616	
57	262.78232312202454	fix_post	2		12	55.0	2.5	/experiments/AOT/AOT_stimuli/rescaled_final/2124_rv.mp4	0.0	328.4749460220337	0.09989094734191895
58	262.88221406936646	fix_pre	0		119	56.0	2.5	blank	1.0	328.5748369693756	0.9917159080505371
58	263.8657810688019	pulse	0	t		56.0	2.5	blank	1.0	329.55840396881104	
58	263.873929977417	movie	1		301	56.0	2.5	blank	1.0	329.56655287742615	2.5083250999450684
58	265.4657130241394	pulse	1	t		56.0	2.5	blank	1.0	331.15833592414856	
58	266.38225507736206	fix_post	2		12	56.0	2.5	blank	1.0	332.0748779773712	0.10009884834289551
59	266.48235392570496	fix_pre	0		120	57.0	2.5	/experiments/AOT/AOT_stimuli/rescaled_final/0139_rv.mp4	0.0	332.1749768257141	0.999859094619751
59	267.06574606895447	pulse	0	t		57.0	2.5	/experiments/AOT/AOT_stimuli/rescaled_final/0139_rv.mp4	0.0	332.7583689689636	
59	267.4822130203247	movie	1		244	57.0	2.5	/experiments/AOT/AOT_stimuli/rescaled_final/0139_rv.mp4	0.0	333.17483592033386	2.4999730587005615
59	268.6657860279083	pulse	1	t		57.0	2.5	/experiments/AOT/AOT_stimuli/rescaled_final/0139_rv.mp4	0.0	334.3584089279175	
59	269.98218607902527	fix_post	2		12	57.0	2.5	/experiments/AOT/AOT_stimuli/rescaled_final/0139_rv.mp4	0.0	335.6748089790344	0.10006189346313477
60	270.0822479724884	fix_pre	0		120	58.0	2.5	/experiments/AOT/AOT_stimuli/rescaled_final/1062_fw.mp4	0.0	335.77487087249756	0.9999649524688721
60	270.2657639980316	pulse	0	t		58.0	2.5	/experiments/AOT/AOT_stimuli/rescaled_final/1062_fw.mp4	0.0	335.95838689804077	
60	271.0822129249573	movie	1		247	58.0	2.5	/experiments/AOT/AOT_stimuli/rescaled_final/1062_fw.mp4	0.0	336.77483582496643	2.5000500679016113
60	271.8657410144806	pulse	1	t		58.0	2.5	/experiments/AOT/AOT_stimuli/rescaled_final/1062_fw.mp4	0.0	337.55836391448975	
60	273.4740779399872	pulse	1	t		58.0	2.5	/experiments/AOT/AOT_stimuli/rescaled_final/1062_fw.mp4	0.0	339.16670083999634	
60	273.5822629928589	fix_post	2		12	58.0	2.5	/experiments/AOT/AOT_stimuli/rescaled_final/1062_fw.mp4	0.0	339.27488589286804	0.09994101524353027
61	273.6822040081024	fix_pre	0		120	59.0	2.5	/experiments/AOT/AOT_stimuli/rescaled_final/1807_fw.mp4	0.0	339.3748269081116	1.0000059604644775
61	274.6822099685669	movie	1		243	59.0	2.5	/experiments/AOT/AOT_stimuli/rescaled_final/1807_fw.mp4	0.0	340.37483286857605	2.5002870559692383
61	275.06600999832153	pulse	1	t		59.0	2.5	/experiments/AOT/AOT_stimuli/rescaled_final/1807_fw.mp4	0.0	340.7586328983307	
61	276.6658298969269	pulse	1	t		59.0	2.5	/experiments/AOT/AOT_stimuli/rescaled_final/1807_fw.mp4	0.0	342.35845279693604	
61	277.18249702453613	fix_post	2		12	59.0	2.5	/experiments/AOT/AOT_stimuli/rescaled_final/1807_fw.mp4	0.0	342.8751199245453	0.09965109825134277
62	277.2821481227875	fix_pre	0		119	60.0	2.5	/experiments/AOT/AOT_stimuli/rescaled_final/1376_fw.mp4	0.0	342.97477102279663	0.9916768074035645
62	278.26577401161194	pulse	0	t		60.0	2.5	/experiments/AOT/AOT_stimuli/rescaled_final/1376_fw.mp4	0.0	343.9583969116211	
62	278.27382493019104	movie	1		246	60.0	2.5	/experiments/AOT/AOT_stimuli/rescaled_final/1376_fw.mp4	0.0	343.9664478302002	2.508371114730835
62	279.874135017395	pulse	1	t		60.0	2.5	/experiments/AOT/AOT_stimuli/rescaled_final/1376_fw.mp4	0.0	345.5667579174042	
62	280.7821960449219	fix_post	2		12	60.0	2.5	/experiments/AOT/AOT_stimuli/rescaled_final/1376_fw.mp4	0.0	346.47481894493103	0.10006308555603027
63	280.8822591304779	fix_pre	0		120	61.0	2.5	/experiments/AOT/AOT_stimuli/rescaled_final/1471_fw.mp4	0.0	346.57488203048706	0.9994688034057617
63	281.4657120704651	pulse	0	t		61.0	2.5	/experiments/AOT/AOT_stimuli/rescaled_final/1471_fw.mp4	0.0	347.15833497047424	
63	281.88172793388367	movie	1		243	61.0	2.5	/experiments/AOT/AOT_stimuli/rescaled_final/1471_fw.mp4	0.0	347.5743508338928	2.5005481243133545
63	283.0657711029053	pulse	1	t		61.0	2.5	/experiments/AOT/AOT_stimuli/rescaled_final/1471_fw.mp4	0.0	348.75839400291443	
63	284.382276058197	fix_post	2		12	61.0	2.5	/experiments/AOT/AOT_stimuli/rescaled_final/1471_fw.mp4	0.0	350.0748989582062	0.09993386268615723
64	284.4822099208832	fix_pre	0		120	62.0	2.5	blank	1.0	350.17483282089233	1.0000061988830566
64	284.6656699180603	pulse	0	t		62.0	2.5	blank	1.0	350.35829281806946	
64	285.48221611976624	movie	1		300	62.0	2.5	blank	1.0	351.1748390197754	2.4999289512634277
64	286.26570105552673	pulse	1	t		62.0	2.5	blank	1.0	351.9583239555359	
64	287.86560893058777	pulse	1	t		62.0	2.5	blank	1.0	353.5582318305969	
64	287.98214507102966	fix_post	2		12	62.0	2.5	blank	1.0	353.6747679710388	0.10000085830688477
65	288.08214592933655	fix_pre	0		120	63.0	2.5	/experiments/AOT/AOT_stimuli/rescaled_final/0186_rv.mp4	0.0	353.7747688293457	0.9997000694274902
65	289.08184599876404	movie	1		244	63.0	2.5	/experiments/AOT/AOT_stimuli/rescaled_final/0186_rv.mp4	0.0	354.7744688987732	2.5003740787506104
65	289.474093914032	pulse	1	t		63.0	2.5	/experiments/AOT/AOT_stimuli/rescaled_final/0186_rv.mp4	0.0	355.16671681404114	
65	291.0665240287781	pulse	1	t		63.0	2.5	/experiments/AOT/AOT_stimuli/rescaled_final/0186_rv.mp4	0.0	356.75914692878723	
65	291.58222007751465	fix_post	2		12	63.0	2.5	/experiments/AOT/AOT_stimuli/rescaled_final/0186_rv.mp4	0.0	357.2748429775238	0.09996795654296875
66	291.6821880340576	fix_pre	0		120	64.0	2.5	/experiments/AOT/AOT_stimuli/rescaled_final/0817_fw.mp4	0.0	357.3748109340668	0.9999620914459229
66	292.66646695137024	pulse	0	t		64.0	2.5	/experiments/AOT/AOT_stimuli/rescaled_final/0817_fw.mp4	0.0	358.3590898513794	
66	292.68215012550354	movie	1		244	64.0	2.5	/experiments/AOT/AOT_stimuli/rescaled_final/0817_fw.mp4	0.0	358.3747730255127	2.5082738399505615
66	294.27530694007874	pulse	1	t		64.0	2.5	/experiments/AOT/AOT_stimuli/rescaled_final/0817_fw.mp4	0.0	359.9679298400879	
66	295.1904239654541	fix_post	2		12	64.0	2.5	/experiments/AOT/AOT_stimuli/rescaled_final/0817_fw.mp4	0.0	360.88304686546326	0.10001802444458008
67	295.2904419898987	fix_pre	0		120	65.0	2.5	/experiments/AOT/AOT_stimuli/rescaled_final/2007_rv.mp4	0.0	360.98306488990784	1.0000979900360107
67	295.86567401885986	pulse	0	t		65.0	2.5	/experiments/AOT/AOT_stimuli/rescaled_final/2007_rv.mp4	0.0	361.558296918869	
67	296.2905399799347	movie	1		244	65.0	2.5	/experiments/AOT/AOT_stimuli/rescaled_final/2007_rv.mp4	0.0	361.98316287994385	2.4999301433563232
67	297.474081993103	pulse	1	t		65.0	2.5	/experiments/AOT/AOT_stimuli/rescaled_final/2007_rv.mp4	0.0	363.1667048931122	
67	298.790470123291	fix_post	2		12	65.0	2.5	/experiments/AOT/AOT_stimuli/rescaled_final/2007_rv.mp4	0.0	364.48309302330017	0.09995293617248535
68	298.8904230594635	fix_pre	0		120	66.0	2.5	/experiments/AOT/AOT_stimuli/rescaled_final/0829_rv.mp4	0.0	364.58304595947266	0.9996700286865234
68	299.06564807891846	pulse	0	t		66.0	2.5	/experiments/AOT/AOT_stimuli/rescaled_final/0829_rv.mp4	0.0	364.7582709789276	
68	299.89009308815	movie	1		243	66.0	2.5	/experiments/AOT/AOT_stimuli/rescaled_final/0829_rv.mp4	0.0	365.5827159881592	2.50032901763916
68	300.6655550003052	pulse	1	t		66.0	2.5	/experiments/AOT/AOT_stimuli/rescaled_final/0829_rv.mp4	0.0	366.35817790031433	
68	302.2655909061432	pulse	1	t		66.0	2.5	/experiments/AOT/AOT_stimuli/rescaled_final/0829_rv.mp4	0.0	367.95821380615234	
68	302.3904221057892	fix_post	2		12	66.0	2.5	/experiments/AOT/AOT_stimuli/rescaled_final/0829_rv.mp4	0.0	368.08304500579834	0.10001492500305176
69	302.49043703079224	fix_pre	0		120	67.0	2.5	/experiments/AOT/AOT_stimuli/rescaled_final/0470_fw.mp4	0.0	368.1830599308014	1.0000269412994385
69	303.4904639720917	movie	1		244	67.0	2.5	/experiments/AOT/AOT_stimuli/rescaled_final/0470_fw.mp4	0.0	369.18308687210083	2.4999849796295166
69	303.86559891700745	pulse	1	t		67.0	2.5	/experiments/AOT/AOT_stimuli/rescaled_final/0470_fw.mp4	0.0	369.5582218170166	
69	305.46657395362854	pulse	1	t		67.0	2.5	/experiments/AOT/AOT_stimuli/rescaled_final/0470_fw.mp4	0.0	371.1591968536377	
69	305.9904489517212	fix_post	2		12	67.0	2.5	/experiments/AOT/AOT_stimuli/rescaled_final/0470_fw.mp4	0.0	371.68307185173035	0.10003900527954102
70	306.09048795700073	fix_pre	0		119	68.0	2.5	/experiments/AOT/AOT_stimuli/rescaled_final/1508_fw.mp4	0.0	371.7831108570099	0.9916031360626221
70	307.0663619041443	pulse	0	t		68.0	2.5	/experiments/AOT/AOT_stimuli/rescaled_final/1508_fw.mp4	0.0	372.75898480415344	
70	307.08209109306335	movie	1		245	68.0	2.5	/experiments/AOT/AOT_stimuli/rescaled_final/1508_fw.mp4	0.0	372.7747139930725	2.5083799362182617
70	308.6729919910431	pulse	1	t		68.0	2.5	/experiments/AOT/AOT_stimuli/rescaled_final/1508_fw.mp4	0.0	374.36561489105225	
70	309.5904710292816	fix_post	2		12	68.0	2.5	/experiments/AOT/AOT_stimuli/rescaled_final/1508_fw.mp4	0.0	375.28309392929077	0.09958100318908691
71	309.6900520324707	fix_pre	0		120	69.0	2.5	blank	1.0	375.38267493247986	1.00016188621521
71	310.2665250301361	pulse	0	t		69.0	2.5	blank	1.0	375.95914793014526	
71	310.6902139186859	movie	1		300	69.0	2.5	blank	1.0	376.38283681869507	2.5001790523529053
71	311.8662669658661	pulse	1	t		69.0	2.5	blank	1.0	377.55888986587524	
71	313.1903929710388	fix_post	2		12	69.0	2.5	blank	1.0	378.883015871048	0.10001897811889648
72	313.2904119491577	fix_pre	0		120	70.0	2.5	/experiments/AOT/AOT_stimuli/rescaled_final/0249_fw.mp4	0.0	378.98303484916687	0.999561071395874
72	313.46558594703674	pulse	0	t		70.0	2.5	/experiments/AOT/AOT_stimuli/rescaled_final/0249_fw.mp4	0.0	379.1582088470459	
72	314.2899730205536	movie	1		246	70.0	2.5	/experiments/AOT/AOT_stimuli/rescaled_final/0249_fw.mp4	0.0	379.98259592056274	2.5003249645233154
72	315.06646490097046	pulse	1	t		70.0	2.5	/experiments/AOT/AOT_stimuli/rescaled_final/0249_fw.mp4	0.0	380.7590878009796	
72	316.66574597358704	pulse	1	t		70.0	2.5	/experiments/AOT/AOT_stimuli/rescaled_final/0249_fw.mp4	0.0	382.3583688735962	
72	316.7902979850769	fix_post	2		12	70.0	2.5	/experiments/AOT/AOT_stimuli/rescaled_final/0249_fw.mp4	0.0	382.48292088508606	0.0999901294708252
73	316.89028811454773	fix_pre	0		120	71.0	2.5	/experiments/AOT/AOT_stimuli/rescaled_final/0818_fw.mp4	0.0	382.5829110145569	1.0000388622283936
73	317.8903269767761	movie	1		244	71.0	2.5	/experiments/AOT/AOT_stimuli/rescaled_final/0818_fw.mp4	0.0	383.5829498767853	2.499972105026245
73	318.26539397239685	pulse	1	t		71.0	2.5	/experiments/AOT/AOT_stimuli/rescaled_final/0818_fw.mp4	0.0	383.958016872406	
73	319.86551094055176	pulse	1	t		71.0	2.5	/experiments/AOT/AOT_stimuli/rescaled_final/0818_fw.mp4	0.0	385.5581338405609	
73	320.39029908180237	fix_post	2		12	71.0	2.5	/experiments/AOT/AOT_stimuli/rescaled_final/0818_fw.mp4	0.0	386.0829219818115	0.10003495216369629
74	320.49033403396606	fix_pre	0		118	72.0	2.5	/experiments/AOT/AOT_stimuli/rescaled_final/2101_rv.mp4	0.0	386.1829569339752	0.9834048748016357
74	321.46543407440186	pulse	0	t		72.0	2.5	/experiments/AOT/AOT_stimuli/rescaled_final/2101_rv.mp4	0.0	387.158056974411	
74	321.4737389087677	movie	1		246	72.0	2.5	/experiments/AOT/AOT_stimuli/rescaled_final/2101_rv.mp4	0.0	387.16636180877686	2.5082831382751465
74	323.0738561153412	pulse	1	t		72.0	2.5	/experiments/AOT/AOT_stimuli/rescaled_final/2101_rv.mp4	0.0	388.76647901535034	
74	323.98202204704285	fix_post	2		12	72.0	2.5	/experiments/AOT/AOT_stimuli/rescaled_final/2101_rv.mp4	0.0	389.674644947052	0.10004997253417969
75	324.082072019577	fix_pre	0		120	73.0	2.5	/experiments/AOT/AOT_stimuli/rescaled_final/0347_fw.mp4	0.0	389.7746949195862	0.9999370574951172
75	324.6664180755615	pulse	0	t		73.0	2.5	/experiments/AOT/AOT_stimuli/rescaled_final/0347_fw.mp4	0.0	390.3590409755707	
75	325.08200907707214	movie	1		243	73.0	2.5	/experiments/AOT/AOT_stimuli/rescaled_final/0347_fw.mp4	0.0	390.7746319770813	2.49954891204834
75	326.26644492149353	pulse	1	t		73.0	2.5	/experiments/AOT/AOT_stimuli/rescaled_final/0347_fw.mp4	0.0	391.9590678215027	
75	327.5815579891205	fix_post	2		12	73.0	2.5	/experiments/AOT/AOT_stimuli/rescaled_final/0347_fw.mp4	0.0	393.27418088912964	0.1004490852355957
76	327.6820070743561	fix_pre	0		120	74.0	2.5	/experiments/AOT/AOT_stimuli/rescaled_final/0379_fw.mp4	0.0	393.37462997436523	0.9999489784240723
76	327.8662610054016	pulse	0	t		74.0	2.5	/experiments/AOT/AOT_stimuli/rescaled_final/0379_fw.mp4	0.0	393.55888390541077	
76	328.68195605278015	movie	1		243	74.0	2.5	/experiments/AOT/AOT_stimuli/rescaled_final/0379_fw.mp4	0.0	394.3745789527893	2.5000319480895996
76	329.46637511253357	pulse	1	t		74.0	2.5	/experiments/AOT/AOT_stimuli/rescaled_final/0379_fw.mp4	0.0	395.1589980125427	
76	331.0737600326538	pulse	1	t		74.0	2.5	/experiments/AOT/AOT_stimuli/rescaled_final/0379_fw.mp4	0.0	396.76638293266296	
76	331.18198800086975	fix_post	2		12	74.0	2.5	/experiments/AOT/AOT_stimuli/rescaled_final/0379_fw.mp4	0.0	396.8746109008789	0.10008502006530762
77	331.28207302093506	fix_pre	0		120	75.0	2.5	blank	1.0	396.9746959209442	0.9998359680175781
77	332.28190898895264	movie	1		300	75.0	2.5	blank	1.0	397.9745318889618	2.4996159076690674
77	332.6654601097107	pulse	1	t		75.0	2.5	blank	1.0	398.35808300971985	
77	334.2654159069061	pulse	1	t		75.0	2.5	blank	1.0	399.9580388069153	
77	334.7815248966217	fix_post	2		12	75.0	2.5	blank	1.0	400.47414779663086	0.10036611557006836
78	334.8818910121918	fix_pre	0		119	76.0	2.5	/experiments/AOT/AOT_stimuli/rescaled_final/0933_fw.mp4	0.0	400.5745139122009	0.9917020797729492
78	335.86531805992126	pulse	0	t		76.0	2.5	/experiments/AOT/AOT_stimuli/rescaled_final/0933_fw.mp4	0.0	401.5579409599304	
78	335.8735930919647	movie	1		246	76.0	2.5	/experiments/AOT/AOT_stimuli/rescaled_final/0933_fw.mp4	0.0	401.5662159919739	2.508358955383301
78	337.4668200016022	pulse	1	t		76.0	2.5	/experiments/AOT/AOT_stimuli/rescaled_final/0933_fw.mp4	0.0	403.1594429016113	
78	338.381952047348	fix_post	2		12	76.0	2.5	/experiments/AOT/AOT_stimuli/rescaled_final/0933_fw.mp4	0.0	404.0745749473572	0.10001492500305176
79	338.4819669723511	fix_pre	0		120	77.0	2.5	/experiments/AOT/AOT_stimuli/rescaled_final/0829_fw.mp4	0.0	404.17458987236023	0.9999809265136719
79	339.0663011074066	pulse	0	t		77.0	2.5	/experiments/AOT/AOT_stimuli/rescaled_final/0829_fw.mp4	0.0	404.75892400741577	
79	339.48194789886475	movie	1		244	77.0	2.5	/experiments/AOT/AOT_stimuli/rescaled_final/0829_fw.mp4	0.0	405.1745707988739	2.5000391006469727
79	340.6671209335327	pulse	1	t		77.0	2.5	/experiments/AOT/AOT_stimuli/rescaled_final/0829_fw.mp4	0.0	406.35974383354187	
79	341.9819869995117	fix_post	2		12	77.0	2.5	/experiments/AOT/AOT_stimuli/rescaled_final/0829_fw.mp4	0.0	407.6746098995209	0.09994101524353027
80	342.08192801475525	fix_pre	0		120	78.0	2.5	/experiments/AOT/AOT_stimuli/rescaled_final/0213_rv.mp4	0.0	407.7745509147644	0.9995870590209961
80	342.26625394821167	pulse	0	t		78.0	2.5	/experiments/AOT/AOT_stimuli/rescaled_final/0213_rv.mp4	0.0	407.9588768482208	
80	343.08151507377625	movie	1		246	78.0	2.5	/experiments/AOT/AOT_stimuli/rescaled_final/0213_rv.mp4	0.0	408.7741379737854	2.5003509521484375
80	343.866238117218	pulse	1	t		78.0	2.5	/experiments/AOT/AOT_stimuli/rescaled_final/0213_rv.mp4	0.0	409.5588610172272	
80	345.46573090553284	pulse	1	t		78.0	2.5	/experiments/AOT/AOT_stimuli/rescaled_final/0213_rv.mp4	0.0	411.158353805542	
80	345.5818660259247	fix_post	2		12	78.0	2.5	/experiments/AOT/AOT_stimuli/rescaled_final/0213_rv.mp4	0.0	411.27448892593384	0.10005402565002441
81	345.6819200515747	fix_pre	0		120	79.0	2.5	/experiments/AOT/AOT_stimuli/rescaled_final/1210_fw.mp4	0.0	411.37454295158386	0.9995930194854736
81	346.6815130710602	movie	1		244	79.0	2.5	/experiments/AOT/AOT_stimuli/rescaled_final/1210_fw.mp4	0.0	412.37413597106934	2.5000078678131104
81	347.07381296157837	pulse	1	t		79.0	2.5	/experiments/AOT/AOT_stimuli/rescaled_final/1210_fw.mp4	0.0	412.7664358615875	
81	348.6654109954834	pulse	1	t		79.0	2.5	/experiments/AOT/AOT_stimuli/rescaled_final/1210_fw.mp4	0.0	414.35803389549255	
81	349.1815209388733	fix_post	2		12	79.0	2.5	/experiments/AOT/AOT_stimuli/rescaled_final/1210_fw.mp4	0.0	414.87414383888245	0.10052108764648438
82	349.2820420265198	fix_pre	0		119	80.0	2.5	/experiments/AOT/AOT_stimuli/rescaled_final/0244_rv.mp4	0.0	414.97466492652893	0.9915618896484375
82	350.26536297798157	pulse	0	t		80.0	2.5	/experiments/AOT/AOT_stimuli/rescaled_final/0244_rv.mp4	0.0	415.9579858779907	
82	350.2736039161682	movie	1		247	80.0	2.5	/experiments/AOT/AOT_stimuli/rescaled_final/0244_rv.mp4	0.0	415.96622681617737	2.50832200050354
82	351.8651900291443	pulse	1	t		80.0	2.5	/experiments/AOT/AOT_stimuli/rescaled_final/0244_rv.mp4	0.0	417.55781292915344	
82	352.78192591667175	fix_post	2		12	80.0	2.5	/experiments/AOT/AOT_stimuli/rescaled_final/0244_rv.mp4	0.0	418.4745488166809	0.09996199607849121
83	352.88188791275024	fix_pre	0		120	81.0	2.5	/experiments/AOT/AOT_stimuli/rescaled_final/1989_rv.mp4	0.0	418.5745108127594	0.9999761581420898
83	353.4653511047363	pulse	0	t		81.0	2.5	/experiments/AOT/AOT_stimuli/rescaled_final/1989_rv.mp4	0.0	419.1579740047455	
83	353.88186407089233	movie	1		246	81.0	2.5	/experiments/AOT/AOT_stimuli/rescaled_final/1989_rv.mp4	0.0	419.5744869709015	2.5000698566436768
83	355.0662031173706	pulse	1	t		81.0	2.5	/experiments/AOT/AOT_stimuli/rescaled_final/1989_rv.mp4	0.0	420.75882601737976	
83	356.381933927536	fix_post	2		12	81.0	2.5	/experiments/AOT/AOT_stimuli/rescaled_final/1989_rv.mp4	0.0	422.07455682754517	0.09997701644897461
84	356.481910943985	fix_pre	0		120	82.0	2.5	blank	1.0	422.17453384399414	0.9999570846557617
84	356.6661629676819	pulse	0	t		82.0	2.5	blank	1.0	422.35878586769104	
84	357.48186802864075	movie	1		300	82.0	2.5	blank	1.0	423.1744909286499	2.499584913253784
84	358.26614689826965	pulse	1	t		82.0	2.5	blank	1.0	423.9587697982788	
84	359.8660559654236	pulse	1	t		82.0	2.5	blank	1.0	425.55867886543274	
84	359.98145294189453	fix_post	2		12	82.0	2.5	blank	1.0	425.6740758419037	0.1003880500793457
85	360.0818409919739	fix_pre	0		120	83.0	2.5	/experiments/AOT/AOT_stimuli/rescaled_final/0875_fw.mp4	0.0	425.77446389198303	1.0000500679016113
85	361.0818910598755	movie	1		242	83.0	2.5	/experiments/AOT/AOT_stimuli/rescaled_final/0875_fw.mp4	0.0	426.77451395988464	2.4995779991149902
85	361.4736568927765	pulse	1	t		83.0	2.5	/experiments/AOT/AOT_stimuli/rescaled_final/0875_fw.mp4	0.0	427.16627979278564	
85	363.06618094444275	pulse	1	t		83.0	2.5	/experiments/AOT/AOT_stimuli/rescaled_final/0875_fw.mp4	0.0	428.7588038444519	
85	363.5814690589905	fix_post	2		12	83.0	2.5	/experiments/AOT/AOT_stimuli/rescaled_final/0875_fw.mp4	0.0	429.27409195899963	0.10040783882141113
87	363.6818768978119	stim	0		1716					429.37449979782104	14.299973011016846
87	364.66585206985474	pulse	0	t						430.3584749698639	
87	366.26534700393677	pulse	0	t						431.9579699039459	
87	367.8652079105377	pulse	0	t						433.5578308105469	
87	369.4653379917145	pulse	0	t						435.15796089172363	
87	371.06617403030396	pulse	0	t						436.7587969303131	
87	372.6662480831146	pulse	0	t						438.3588709831238	
87	374.26617312431335	pulse	0	t						439.9587960243225	
87	375.86611700057983	pulse	0	t						441.558739900589	
87	377.4660909175873	pulse	0	t						443.15871381759644	
