trial_nr	onset	event_type	phase	response	nr_frames	movie_index	movie_duration	movie_file	blank	onset_abs	duration
0	0.10830998420715332	stim	0		56					85.03517484664917	0.46669912338256836
0	0.5669879913330078	response	0	space						85.49385285377502	
1	0.5750091075897217	stim	0		5242					85.50187397003174	43.691420793533325
1	44.25509810447693	pulse	0	t						129.18196296691895	
1	44.26642990112305	stim	1		1716					129.19329476356506	14.299931049346924
1	45.849977016448975	pulse	1	t						130.776841878891	
1	47.44995594024658	pulse	1	t						132.3768208026886	
1	49.049911975860596	pulse	1	t						133.9767768383026	
1	50.649965047836304	pulse	1	t						135.57682991027832	
1	52.250739097595215	pulse	1	t						137.17760396003723	
1	53.849947929382324	pulse	1	t						138.77681279182434	
1	55.44985890388489	pulse	1	t						140.3767237663269	
1	57.049896001815796	pulse	1	t						141.9767608642578	
2	58.56636095046997	fix_pre	0		11	0.0	2.5	/experiments/AOT/AOT_stimuli/rescaled_final/1693_fw.mp4	0.0	143.493225812912	0.09168195724487305
2	58.64993405342102	pulse	0	t		0.0	2.5	/experiments/AOT/AOT_stimuli/rescaled_final/1693_fw.mp4	0.0	143.57679891586304	
2	58.658042907714844	movie	1		244	0.0	2.5	/experiments/AOT/AOT_stimuli/rescaled_final/1693_fw.mp4	0.0	143.58490777015686	2.507899045944214
2	60.24972200393677	pulse	1	t		0.0	2.5	/experiments/AOT/AOT_stimuli/rescaled_final/1693_fw.mp4	0.0	145.17658686637878	
2	61.16594195365906	fix_post	2		12	0.0	2.5	/experiments/AOT/AOT_stimuli/rescaled_final/1693_fw.mp4	0.0	146.09280681610107	0.10040807723999023
3	61.26635003089905	fix_pre	0		120	1.0	2.5	/experiments/AOT/AOT_stimuli/rescaled_final/0717_fw.mp4	0.0	146.19321489334106	1.0000450611114502
3	61.84991502761841	pulse	0	t		1.0	2.5	/experiments/AOT/AOT_stimuli/rescaled_final/0717_fw.mp4	0.0	146.77677989006042	
3	62.2663950920105	movie	1		245	1.0	2.5	/experiments/AOT/AOT_stimuli/rescaled_final/0717_fw.mp4	0.0	147.19325995445251	2.4999988079071045
3	63.44990110397339	pulse	1	t		1.0	2.5	/experiments/AOT/AOT_stimuli/rescaled_final/0717_fw.mp4	0.0	148.3767659664154	
3	64.7663938999176	fix_post	2		12	1.0	2.5	/experiments/AOT/AOT_stimuli/rescaled_final/0717_fw.mp4	0.0	149.69325876235962	0.09999203681945801
4	64.86638593673706	fix_pre	0		120	2.0	2.5	/experiments/AOT/AOT_stimuli/rescaled_final/0234_rv.mp4	0.0	149.79325079917908	1.0000510215759277
4	65.0499370098114	pulse	0	t		2.0	2.5	/experiments/AOT/AOT_stimuli/rescaled_final/0234_rv.mp4	0.0	149.97680187225342	
4	65.86643695831299	movie	1		244	2.0	2.5	/experiments/AOT/AOT_stimuli/rescaled_final/0234_rv.mp4	0.0	150.793301820755	2.499527931213379
4	66.64986300468445	pulse	1	t		2.0	2.5	/experiments/AOT/AOT_stimuli/rescaled_final/0234_rv.mp4	0.0	151.57672786712646	
4	68.2582049369812	pulse	1	t		2.0	2.5	/experiments/AOT/AOT_stimuli/rescaled_final/0234_rv.mp4	0.0	153.18506979942322	
4	68.36596488952637	fix_post	2		12	2.0	2.5	/experiments/AOT/AOT_stimuli/rescaled_final/0234_rv.mp4	0.0	153.29282975196838	0.10040402412414551
5	68.46636891365051	fix_pre	0		120	3.0	2.5	/experiments/AOT/AOT_stimuli/rescaled_final/1379_rv.mp4	0.0	153.39323377609253	0.9999749660491943
5	69.4663438796997	movie	1		244	3.0	2.5	/experiments/AOT/AOT_stimuli/rescaled_final/1379_rv.mp4	0.0	154.39320874214172	2.4995100498199463
5	69.85832595825195	pulse	1	t		3.0	2.5	/experiments/AOT/AOT_stimuli/rescaled_final/1379_rv.mp4	0.0	154.78519082069397	
5	71.44993901252747	pulse	1	t		3.0	2.5	/experiments/AOT/AOT_stimuli/rescaled_final/1379_rv.mp4	0.0	156.37680387496948	
5	71.96585392951965	fix_post	2		12	3.0	2.5	/experiments/AOT/AOT_stimuli/rescaled_final/1379_rv.mp4	0.0	156.89271879196167	0.10045695304870605
6	72.06631088256836	fix_pre	0		119	4.0	2.5	/experiments/AOT/AOT_stimuli/rescaled_final/0636_fw.mp4	0.0	156.99317574501038	0.9916660785675049
6	73.04985404014587	pulse	0	t		4.0	2.5	/experiments/AOT/AOT_stimuli/rescaled_final/0636_fw.mp4	0.0	157.9767189025879	
6	73.05797696113586	movie	1		246	4.0	2.5	/experiments/AOT/AOT_stimuli/rescaled_final/0636_fw.mp4	0.0	157.98484182357788	2.507920026779175
6	74.65825390815735	pulse	1	t		4.0	2.5	/experiments/AOT/AOT_stimuli/rescaled_final/0636_fw.mp4	0.0	159.58511877059937	
6	75.56589698791504	fix_post	2		12	4.0	2.5	/experiments/AOT/AOT_stimuli/rescaled_final/0636_fw.mp4	0.0	160.49276185035706	0.10036492347717285
7	75.66626191139221	fix_pre	0		120	5.0	2.5	/experiments/AOT/AOT_stimuli/rescaled_final/0018_rv.mp4	0.0	160.59312677383423	0.9996511936187744
7	76.24978590011597	pulse	0	t		5.0	2.5	/experiments/AOT/AOT_stimuli/rescaled_final/0018_rv.mp4	0.0	161.17665076255798	
7	76.66591310501099	movie	1		246	5.0	2.5	/experiments/AOT/AOT_stimuli/rescaled_final/0018_rv.mp4	0.0	161.592777967453	2.5000598430633545
7	77.85021901130676	pulse	1	t		5.0	2.5	/experiments/AOT/AOT_stimuli/rescaled_final/0018_rv.mp4	0.0	162.77708387374878	
7	79.16597294807434	fix_post	2		12	5.0	2.5	/experiments/AOT/AOT_stimuli/rescaled_final/0018_rv.mp4	0.0	164.09283781051636	0.1000680923461914
8	79.26604104042053	fix_pre	0		120	6.0	2.5	/experiments/AOT/AOT_stimuli/rescaled_final/1388_rv.mp4	0.0	164.19290590286255	1.0000898838043213
8	79.44949793815613	pulse	0	t		6.0	2.5	/experiments/AOT/AOT_stimuli/rescaled_final/1388_rv.mp4	0.0	164.37636280059814	
8	80.26613092422485	movie	1		245	6.0	2.5	/experiments/AOT/AOT_stimuli/rescaled_final/1388_rv.mp4	0.0	165.19299578666687	2.499744176864624
8	81.04968404769897	pulse	1	t		6.0	2.5	/experiments/AOT/AOT_stimuli/rescaled_final/1388_rv.mp4	0.0	165.976548910141	
8	82.6579020023346	pulse	1	t		6.0	2.5	/experiments/AOT/AOT_stimuli/rescaled_final/1388_rv.mp4	0.0	167.5847668647766	
8	82.76587510108948	fix_post	2		12	6.0	2.5	/experiments/AOT/AOT_stimuli/rescaled_final/1388_rv.mp4	0.0	167.6927399635315	0.10001182556152344
9	82.865886926651	fix_pre	0		120	7.0	2.5	blank	1.0	167.79275178909302	0.9999680519104004
9	83.8658549785614	movie	1		300	7.0	2.5	blank	1.0	168.79271984100342	2.500394105911255
9	84.25066590309143	pulse	1	t		7.0	2.5	blank	1.0	169.17753076553345	
9	85.85070300102234	pulse	1	t		7.0	2.5	blank	1.0	170.77756786346436	
9	86.36624908447266	fix_post	2		12	7.0	2.5	blank	1.0	171.29311394691467	0.09999895095825195
10	86.46624803543091	fix_pre	0		120	8.0	2.5	/experiments/AOT/AOT_stimuli/rescaled_final/1845_fw.mp4	0.0	171.39311289787292	1.0000150203704834
10	87.45060300827026	pulse	0	t		8.0	2.5	/experiments/AOT/AOT_stimuli/rescaled_final/1845_fw.mp4	0.0	172.37746787071228	
10	87.46626305580139	movie	1		245	8.0	2.5	/experiments/AOT/AOT_stimuli/rescaled_final/1845_fw.mp4	0.0	172.3931279182434	2.5083320140838623
10	89.05747890472412	pulse	1	t		8.0	2.5	/experiments/AOT/AOT_stimuli/rescaled_final/1845_fw.mp4	0.0	173.98434376716614	
10	89.97459506988525	fix_post	2		12	8.0	2.5	/experiments/AOT/AOT_stimuli/rescaled_final/1845_fw.mp4	0.0	174.90145993232727	0.09958481788635254
11	90.0741798877716	fix_pre	0		120	9.0	2.5	/experiments/AOT/AOT_stimuli/rescaled_final/1030_rv.mp4	0.0	175.00104475021362	1.0003540515899658
11	90.6497130393982	pulse	0	t		9.0	2.5	/experiments/AOT/AOT_stimuli/rescaled_final/1030_rv.mp4	0.0	175.5765779018402	
11	91.07453393936157	movie	1		245	9.0	2.5	/experiments/AOT/AOT_stimuli/rescaled_final/1030_rv.mp4	0.0	176.0013988018036	2.499990940093994
11	92.25818204879761	pulse	1	t		9.0	2.5	/experiments/AOT/AOT_stimuli/rescaled_final/1030_rv.mp4	0.0	177.18504691123962	
11	93.57452487945557	fix_post	2		12	9.0	2.5	/experiments/AOT/AOT_stimuli/rescaled_final/1030_rv.mp4	0.0	178.50138974189758	0.10002708435058594
12	93.67455196380615	fix_pre	0		120	10.0	2.5	/experiments/AOT/AOT_stimuli/rescaled_final/1755_fw.mp4	0.0	178.60141682624817	0.9995660781860352
12	93.8496720790863	pulse	0	t		10.0	2.5	/experiments/AOT/AOT_stimuli/rescaled_final/1755_fw.mp4	0.0	178.77653694152832	
12	94.67411804199219	movie	1		244	10.0	2.5	/experiments/AOT/AOT_stimuli/rescaled_final/1755_fw.mp4	0.0	179.6009829044342	2.5004420280456543
12	95.44967198371887	pulse	1	t		10.0	2.5	/experiments/AOT/AOT_stimuli/rescaled_final/1755_fw.mp4	0.0	180.3765368461609	
12	97.04984402656555	pulse	1	t		10.0	2.5	/experiments/AOT/AOT_stimuli/rescaled_final/1755_fw.mp4	0.0	181.97670888900757	
12	97.17456007003784	fix_post	2		12	10.0	2.5	/experiments/AOT/AOT_stimuli/rescaled_final/1755_fw.mp4	0.0	182.10142493247986	0.09994292259216309
13	97.27450299263	fix_pre	0		120	11.0	2.5	/experiments/AOT/AOT_stimuli/rescaled_final/1704_fw.mp4	0.0	182.20136785507202	0.9996500015258789
13	98.27415299415588	movie	1		244	11.0	2.5	/experiments/AOT/AOT_stimuli/rescaled_final/1704_fw.mp4	0.0	183.2010178565979	2.5004360675811768
13	98.64965796470642	pulse	1	t		11.0	2.5	/experiments/AOT/AOT_stimuli/rescaled_final/1704_fw.mp4	0.0	183.57652282714844	
13	100.25066804885864	pulse	1	t		11.0	2.5	/experiments/AOT/AOT_stimuli/rescaled_final/1704_fw.mp4	0.0	185.17753291130066	
13	100.77458906173706	fix_post	2		12	11.0	2.5	/experiments/AOT/AOT_stimuli/rescaled_final/1704_fw.mp4	0.0	185.70145392417908	0.09996199607849121
14	100.87455105781555	fix_pre	0		119	12.0	2.5	blank	1.0	185.80141592025757	0.9915800094604492
14	101.85059809684753	pulse	0	t		12.0	2.5	blank	1.0	186.77746295928955	
14	101.866131067276	movie	1		301	12.0	2.5	blank	1.0	186.79299592971802	2.508417844772339
14	103.45047497749329	pulse	1	t		12.0	2.5	blank	1.0	188.3773398399353	
14	104.37454891204834	fix_post	2		12	12.0	2.5	blank	1.0	189.30141377449036	0.0999751091003418
15	104.47452402114868	fix_pre	0		120	13.0	2.5	/experiments/AOT/AOT_stimuli/rescaled_final/0230_rv.mp4	0.0	189.4013888835907	1.0000050067901611
15	105.05046796798706	pulse	0	t		13.0	2.5	/experiments/AOT/AOT_stimuli/rescaled_final/0230_rv.mp4	0.0	189.97733283042908	
15	105.47452902793884	movie	1		243	13.0	2.5	/experiments/AOT/AOT_stimuli/rescaled_final/0230_rv.mp4	0.0	190.40139389038086	2.499566078186035
15	106.65808510780334	pulse	1	t		13.0	2.5	/experiments/AOT/AOT_stimuli/rescaled_final/0230_rv.mp4	0.0	191.58494997024536	
15	107.97409510612488	fix_post	2		12	13.0	2.5	/experiments/AOT/AOT_stimuli/rescaled_final/0230_rv.mp4	0.0	192.9009599685669	0.10040283203125
16	108.07449793815613	fix_pre	0		120	14.0	2.5	/experiments/AOT/AOT_stimuli/rescaled_final/0900_fw.mp4	0.0	193.00136280059814	1.0000159740447998
16	108.2497398853302	pulse	0	t		14.0	2.5	/experiments/AOT/AOT_stimuli/rescaled_final/0900_fw.mp4	0.0	193.17660474777222	
16	109.07451391220093	movie	1		248	14.0	2.5	/experiments/AOT/AOT_stimuli/rescaled_final/0900_fw.mp4	0.0	194.00137877464294	2.499981164932251
16	109.84971308708191	pulse	1	t		14.0	2.5	/experiments/AOT/AOT_stimuli/rescaled_final/0900_fw.mp4	0.0	194.77657794952393	
16	111.45016098022461	pulse	1	t		14.0	2.5	/experiments/AOT/AOT_stimuli/rescaled_final/0900_fw.mp4	0.0	196.37702584266663	
16	111.57449507713318	fix_post	2		12	14.0	2.5	/experiments/AOT/AOT_stimuli/rescaled_final/0900_fw.mp4	0.0	196.5013599395752	0.09995484352111816
17	111.6744499206543	fix_pre	0		120	15.0	2.5	/experiments/AOT/AOT_stimuli/rescaled_final/1736_rv.mp4	0.0	196.6013147830963	1.0000710487365723
17	112.67452096939087	movie	1		245	15.0	2.5	/experiments/AOT/AOT_stimuli/rescaled_final/1736_rv.mp4	0.0	197.60138583183289	2.499958038330078
17	113.04965591430664	pulse	1	t		15.0	2.5	/experiments/AOT/AOT_stimuli/rescaled_final/1736_rv.mp4	0.0	197.97652077674866	
17	114.64969897270203	pulse	1	t		15.0	2.5	/experiments/AOT/AOT_stimuli/rescaled_final/1736_rv.mp4	0.0	199.57656383514404	
17	115.17447900772095	fix_post	2		12	15.0	2.5	/experiments/AOT/AOT_stimuli/rescaled_final/1736_rv.mp4	0.0	200.10134387016296	0.09956502914428711
18	115.27404403686523	fix_pre	0		119	16.0	2.5	/experiments/AOT/AOT_stimuli/rescaled_final/2041_rv.mp4	0.0	200.20090889930725	0.9920089244842529
18	116.25044202804565	pulse	0	t		16.0	2.5	/experiments/AOT/AOT_stimuli/rescaled_final/2041_rv.mp4	0.0	201.17730689048767	
18	116.26605296134949	movie	1		244	16.0	2.5	/experiments/AOT/AOT_stimuli/rescaled_final/2041_rv.mp4	0.0	201.1929178237915	2.507972002029419
18	117.85809588432312	pulse	1	t		16.0	2.5	/experiments/AOT/AOT_stimuli/rescaled_final/2041_rv.mp4	0.0	202.78496074676514	
18	118.7740249633789	fix_post	2		12	16.0	2.5	/experiments/AOT/AOT_stimuli/rescaled_final/2041_rv.mp4	0.0	203.70088982582092	0.10045814514160156
19	118.87448310852051	fix_pre	0		120	17.0	2.5	/experiments/AOT/AOT_stimuli/rescaled_final/1434_rv.mp4	0.0	203.80134797096252	0.9999949932098389
19	119.45044207572937	pulse	0	t		17.0	2.5	/experiments/AOT/AOT_stimuli/rescaled_final/1434_rv.mp4	0.0	204.3773069381714	
19	119.87447810173035	movie	1		246	17.0	2.5	/experiments/AOT/AOT_stimuli/rescaled_final/1434_rv.mp4	0.0	204.80134296417236	2.499513864517212
19	121.0580039024353	pulse	1	t		17.0	2.5	/experiments/AOT/AOT_stimuli/rescaled_final/1434_rv.mp4	0.0	205.98486876487732	
19	122.37399196624756	fix_post	2		12	17.0	2.5	/experiments/AOT/AOT_stimuli/rescaled_final/1434_rv.mp4	0.0	207.30085682868958	0.1004939079284668
20	122.47448587417603	fix_pre	0		120	18.0	2.5	/experiments/AOT/AOT_stimuli/rescaled_final/1709_rv.mp4	0.0	207.40135073661804	0.9998672008514404
20	122.65043807029724	pulse	0	t		18.0	2.5	/experiments/AOT/AOT_stimuli/rescaled_final/1709_rv.mp4	0.0	207.57730293273926	
20	123.47435307502747	movie	1		244	18.0	2.5	/experiments/AOT/AOT_stimuli/rescaled_final/1709_rv.mp4	0.0	208.40121793746948	2.499661922454834
20	124.25051689147949	pulse	1	t		18.0	2.5	/experiments/AOT/AOT_stimuli/rescaled_final/1709_rv.mp4	0.0	209.1773817539215	
20	125.85615396499634	pulse	1	t		18.0	2.5	/experiments/AOT/AOT_stimuli/rescaled_final/1709_rv.mp4	0.0	210.78301882743835	
20	125.9740149974823	fix_post	2		12	18.0	2.5	/experiments/AOT/AOT_stimuli/rescaled_final/1709_rv.mp4	0.0	210.90087985992432	0.1003870964050293
21	126.07440209388733	fix_pre	0		120	19.0	2.5	/experiments/AOT/AOT_stimuli/rescaled_final/0086_fw.mp4	0.0	211.00126695632935	1.0000197887420654
21	127.0744218826294	movie	1		243	19.0	2.5	/experiments/AOT/AOT_stimuli/rescaled_final/0086_fw.mp4	0.0	212.0012867450714	2.4995810985565186
21	127.44963097572327	pulse	1	t		19.0	2.5	/experiments/AOT/AOT_stimuli/rescaled_final/0086_fw.mp4	0.0	212.37649583816528	
21	129.04960799217224	pulse	1	t		19.0	2.5	/experiments/AOT/AOT_stimuli/rescaled_final/0086_fw.mp4	0.0	213.97647285461426	
21	129.5740029811859	fix_post	2		12	19.0	2.5	/experiments/AOT/AOT_stimuli/rescaled_final/0086_fw.mp4	0.0	214.50086784362793	0.10037899017333984
22	129.67438197135925	fix_pre	0		118	20.0	2.5	blank	1.0	214.60124683380127	0.9832971096038818
22	130.64959192276	pulse	0	t		20.0	2.5	blank	1.0	215.57645678520203	
22	130.65767908096313	movie	1		301	20.0	2.5	blank	1.0	215.58454394340515	2.508457899093628
22	132.25054097175598	pulse	1	t		20.0	2.5	blank	1.0	217.177405834198	
22	133.16613698005676	fix_post	2		12	20.0	2.5	blank	1.0	218.09300184249878	0.09992504119873047
23	133.2660620212555	fix_pre	0		120	21.0	2.5	/experiments/AOT/AOT_stimuli/rescaled_final/0231_rv.mp4	0.0	218.1929268836975	0.9995660781860352
23	133.85037088394165	pulse	0	t		21.0	2.5	/experiments/AOT/AOT_stimuli/rescaled_final/0231_rv.mp4	0.0	218.77723574638367	
23	134.26562809944153	movie	1		245	21.0	2.5	/experiments/AOT/AOT_stimuli/rescaled_final/0231_rv.mp4	0.0	219.19249296188354	2.5003468990325928
23	135.45129990577698	pulse	1	t		21.0	2.5	/experiments/AOT/AOT_stimuli/rescaled_final/0231_rv.mp4	0.0	220.378164768219	
23	136.76597499847412	fix_post	2		12	21.0	2.5	/experiments/AOT/AOT_stimuli/rescaled_final/0231_rv.mp4	0.0	221.69283986091614	0.10038089752197266
24	136.8663558959961	fix_pre	0		120	22.0	2.5	/experiments/AOT/AOT_stimuli/rescaled_final/1388_fw.mp4	0.0	221.7932207584381	0.9997529983520508
24	137.05023503303528	pulse	0	t		22.0	2.5	/experiments/AOT/AOT_stimuli/rescaled_final/1388_fw.mp4	0.0	221.9770998954773	
24	137.86610889434814	movie	1		246	22.0	2.5	/experiments/AOT/AOT_stimuli/rescaled_final/1388_fw.mp4	0.0	222.79297375679016	2.499885082244873
24	138.6503779888153	pulse	1	t		22.0	2.5	/experiments/AOT/AOT_stimuli/rescaled_final/1388_fw.mp4	0.0	223.57724285125732	
24	140.25429010391235	pulse	1	t		22.0	2.5	/experiments/AOT/AOT_stimuli/rescaled_final/1388_fw.mp4	0.0	225.18115496635437	
24	140.36599397659302	fix_post	2		12	22.0	2.5	/experiments/AOT/AOT_stimuli/rescaled_final/1388_fw.mp4	0.0	225.29285883903503	0.09999203681945801
25	140.46598601341248	fix_pre	0		120	23.0	2.5	/experiments/AOT/AOT_stimuli/rescaled_final/0988_fw.mp4	0.0	225.3928508758545	1.0000200271606445
25	141.46600604057312	movie	1		245	23.0	2.5	/experiments/AOT/AOT_stimuli/rescaled_final/0988_fw.mp4	0.0	226.39287090301514	2.4995319843292236
25	141.85803198814392	pulse	1	t		23.0	2.5	/experiments/AOT/AOT_stimuli/rescaled_final/0988_fw.mp4	0.0	226.78489685058594	
25	143.45032691955566	pulse	1	t		23.0	2.5	/experiments/AOT/AOT_stimuli/rescaled_final/0988_fw.mp4	0.0	228.37719178199768	
25	143.96553802490234	fix_post	2		12	23.0	2.5	/experiments/AOT/AOT_stimuli/rescaled_final/0988_fw.mp4	0.0	228.89240288734436	0.10042691230773926
26	144.06596493721008	fix_pre	0		119	24.0	2.5	/experiments/AOT/AOT_stimuli/rescaled_final/1155_rv.mp4	0.0	228.9928297996521	0.9917240142822266
26	145.0494179725647	pulse	0	t		24.0	2.5	/experiments/AOT/AOT_stimuli/rescaled_final/1155_rv.mp4	0.0	229.9762828350067	
26	145.0576889514923	movie	1		247	24.0	2.5	/experiments/AOT/AOT_stimuli/rescaled_final/1155_rv.mp4	0.0	229.98455381393433	2.5082931518554688
26	146.65784287452698	pulse	1	t		24.0	2.5	/experiments/AOT/AOT_stimuli/rescaled_final/1155_rv.mp4	0.0	231.584707736969	
26	147.56598210334778	fix_post	2		12	24.0	2.5	/experiments/AOT/AOT_stimuli/rescaled_final/1155_rv.mp4	0.0	232.4928469657898	0.10001683235168457
27	147.66599893569946	fix_pre	0		120	25.0	2.5	/experiments/AOT/AOT_stimuli/rescaled_final/0329_rv.mp4	0.0	232.59286379814148	0.9999470710754395
27	148.25032496452332	pulse	0	t		25.0	2.5	/experiments/AOT/AOT_stimuli/rescaled_final/0329_rv.mp4	0.0	233.17718982696533	
27	148.6659460067749	movie	1		242	25.0	2.5	/experiments/AOT/AOT_stimuli/rescaled_final/0329_rv.mp4	0.0	233.59281086921692	2.499969959259033
27	149.85045790672302	pulse	1	t		25.0	2.5	/experiments/AOT/AOT_stimuli/rescaled_final/0329_rv.mp4	0.0	234.77732276916504	
27	151.16591596603394	fix_post	2		12	25.0	2.5	/experiments/AOT/AOT_stimuli/rescaled_final/0329_rv.mp4	0.0	236.09278082847595	0.10000205039978027
28	151.26591801643372	fix_pre	0		120	26.0	2.5	blank	1.0	236.19278287887573	0.9999260902404785
28	151.4502170085907	pulse	0	t		26.0	2.5	blank	1.0	236.37708187103271	
28	152.2658441066742	movie	1		300	26.0	2.5	blank	1.0	237.1927089691162	2.500088930130005
28	153.05030393600464	pulse	1	t		26.0	2.5	blank	1.0	237.97716879844666	
28	154.6502079963684	pulse	1	t		26.0	2.5	blank	1.0	239.57707285881042	
28	154.7659330368042	fix_post	2		12	26.0	2.5	blank	1.0	239.69279789924622	0.09955787658691406
29	154.8654909133911	fix_pre	0		120	27.0	2.5	/experiments/AOT/AOT_stimuli/rescaled_final/1895_fw.mp4	0.0	239.79235577583313	1.0004889965057373
29	155.86597990989685	movie	1		248	27.0	2.5	/experiments/AOT/AOT_stimuli/rescaled_final/1895_fw.mp4	0.0	240.79284477233887	2.4994661808013916
29	156.25779795646667	pulse	1	t		27.0	2.5	/experiments/AOT/AOT_stimuli/rescaled_final/1895_fw.mp4	0.0	241.1846628189087	
29	157.8503758907318	pulse	1	t		27.0	2.5	/experiments/AOT/AOT_stimuli/rescaled_final/1895_fw.mp4	0.0	242.77724075317383	
29	158.36544609069824	fix_post	2		12	27.0	2.5	/experiments/AOT/AOT_stimuli/rescaled_final/1895_fw.mp4	0.0	243.29231095314026	0.10041189193725586
30	158.4658579826355	fix_pre	0		120	28.0	2.5	/experiments/AOT/AOT_stimuli/rescaled_final/2131_fw.mp4	0.0	243.39272284507751	1.0000700950622559
30	159.45031905174255	pulse	0	t		28.0	2.5	/experiments/AOT/AOT_stimuli/rescaled_final/2131_fw.mp4	0.0	244.37718391418457	
30	159.46592807769775	movie	1		248	28.0	2.5	/experiments/AOT/AOT_stimuli/rescaled_final/2131_fw.mp4	0.0	244.39279294013977	2.5083189010620117
30	161.0586380958557	pulse	1	t		28.0	2.5	/experiments/AOT/AOT_stimuli/rescaled_final/2131_fw.mp4	0.0	245.98550295829773	
30	161.97424697875977	fix_post	2		12	28.0	2.5	/experiments/AOT/AOT_stimuli/rescaled_final/2131_fw.mp4	0.0	246.90111184120178	0.1000211238861084
31	162.07426810264587	fix_pre	0		120	29.0	2.5	/experiments/AOT/AOT_stimuli/rescaled_final/1029_rv.mp4	0.0	247.0011329650879	0.9995508193969727
31	162.64942502975464	pulse	0	t		29.0	2.5	/experiments/AOT/AOT_stimuli/rescaled_final/1029_rv.mp4	0.0	247.57628989219666	
31	163.07381892204285	movie	1		244	29.0	2.5	/experiments/AOT/AOT_stimuli/rescaled_final/1029_rv.mp4	0.0	248.00068378448486	2.500399112701416
31	164.2577669620514	pulse	1	t		29.0	2.5	/experiments/AOT/AOT_stimuli/rescaled_final/1029_rv.mp4	0.0	249.1846318244934	
31	165.57421803474426	fix_post	2		12	29.0	2.5	/experiments/AOT/AOT_stimuli/rescaled_final/1029_rv.mp4	0.0	250.50108289718628	0.10003900527954102
32	165.6742570400238	fix_pre	0		120	30.0	2.5	/experiments/AOT/AOT_stimuli/rescaled_final/0434_fw.mp4	0.0	250.60112190246582	0.9995260238647461
32	165.8503348827362	pulse	0	t		30.0	2.5	/experiments/AOT/AOT_stimuli/rescaled_final/0434_fw.mp4	0.0	250.77719974517822	
32	166.67378306388855	movie	1		247	30.0	2.5	/experiments/AOT/AOT_stimuli/rescaled_final/0434_fw.mp4	0.0	251.60064792633057	2.50003981590271
32	167.45032596588135	pulse	1	t		30.0	2.5	/experiments/AOT/AOT_stimuli/rescaled_final/0434_fw.mp4	0.0	252.37719082832336	
32	169.05631494522095	pulse	1	t		30.0	2.5	/experiments/AOT/AOT_stimuli/rescaled_final/0434_fw.mp4	0.0	253.98317980766296	
32	169.17382287979126	fix_post	2		12	30.0	2.5	/experiments/AOT/AOT_stimuli/rescaled_final/0434_fw.mp4	0.0	254.10068774223328	0.10033011436462402
33	169.27415299415588	fix_pre	0		120	31.0	2.5	/experiments/AOT/AOT_stimuli/rescaled_final/2075_fw.mp4	0.0	254.2010178565979	1.0000619888305664
33	170.27421498298645	movie	1		245	31.0	2.5	/experiments/AOT/AOT_stimuli/rescaled_final/2075_fw.mp4	0.0	255.20107984542847	2.4999749660491943
33	170.65795803070068	pulse	1	t		31.0	2.5	/experiments/AOT/AOT_stimuli/rescaled_final/2075_fw.mp4	0.0	255.5848228931427	
33	172.2503309249878	pulse	1	t		31.0	2.5	/experiments/AOT/AOT_stimuli/rescaled_final/2075_fw.mp4	0.0	257.1771957874298	
33	172.77418994903564	fix_post	2		12	31.0	2.5	/experiments/AOT/AOT_stimuli/rescaled_final/2075_fw.mp4	0.0	257.70105481147766	0.09958910942077637
34	172.87377905845642	fix_pre	0		119	32.0	2.5	/experiments/AOT/AOT_stimuli/rescaled_final/0154_rv.mp4	0.0	257.80064392089844	0.9920639991760254
34	173.85028100013733	pulse	0	t		32.0	2.5	/experiments/AOT/AOT_stimuli/rescaled_final/0154_rv.mp4	0.0	258.77714586257935	
34	173.86584305763245	movie	1		247	32.0	2.5	/experiments/AOT/AOT_stimuli/rescaled_final/0154_rv.mp4	0.0	258.79270792007446	2.5079400539398193
34	175.4580910205841	pulse	1	t		32.0	2.5	/experiments/AOT/AOT_stimuli/rescaled_final/0154_rv.mp4	0.0	260.3849558830261	
34	176.37378311157227	fix_post	2		12	32.0	2.5	/experiments/AOT/AOT_stimuli/rescaled_final/0154_rv.mp4	0.0	261.3006479740143	0.10031795501708984
35	176.47410106658936	fix_pre	0		120	33.0	2.5	blank	1.0	261.4009659290314	1.0000088214874268
35	177.05026698112488	pulse	0	t		33.0	2.5	blank	1.0	261.9771318435669	
35	177.47410988807678	movie	1		300	33.0	2.5	blank	1.0	262.4009747505188	2.5000011920928955
35	178.65018606185913	pulse	1	t		33.0	2.5	blank	1.0	263.57705092430115	
35	179.97411108016968	fix_post	2		12	33.0	2.5	blank	1.0	264.9009759426117	0.10004186630249023
36	180.07415294647217	fix_pre	0		120	34.0	2.5	/experiments/AOT/AOT_stimuli/rescaled_final/1089_rv.mp4	0.0	265.0010178089142	0.999981164932251
36	180.2501950263977	pulse	0	t		34.0	2.5	/experiments/AOT/AOT_stimuli/rescaled_final/1089_rv.mp4	0.0	265.1770598888397	
36	181.07413411140442	movie	1		245	34.0	2.5	/experiments/AOT/AOT_stimuli/rescaled_final/1089_rv.mp4	0.0	266.00099897384644	2.499969959259033
36	181.8502140045166	pulse	1	t		34.0	2.5	/experiments/AOT/AOT_stimuli/rescaled_final/1089_rv.mp4	0.0	266.7770788669586	
36	183.45363187789917	pulse	1	t		34.0	2.5	/experiments/AOT/AOT_stimuli/rescaled_final/1089_rv.mp4	0.0	268.3804967403412	
36	183.57410407066345	fix_post	2		12	34.0	2.5	/experiments/AOT/AOT_stimuli/rescaled_final/1089_rv.mp4	0.0	268.50096893310547	0.10005998611450195
37	183.67416405677795	fix_pre	0		120	35.0	2.5	/experiments/AOT/AOT_stimuli/rescaled_final/2041_fw.mp4	0.0	268.60102891921997	1.0000498294830322
37	184.674213886261	movie	1		244	35.0	2.5	/experiments/AOT/AOT_stimuli/rescaled_final/2041_fw.mp4	0.0	269.601078748703	2.4995200634002686
37	185.0574688911438	pulse	1	t		35.0	2.5	/experiments/AOT/AOT_stimuli/rescaled_final/2041_fw.mp4	0.0	269.9843337535858	
37	186.65038800239563	pulse	1	t		35.0	2.5	/experiments/AOT/AOT_stimuli/rescaled_final/2041_fw.mp4	0.0	271.57725286483765	
37	187.17373394966125	fix_post	2		12	35.0	2.5	/experiments/AOT/AOT_stimuli/rescaled_final/2041_fw.mp4	0.0	272.10059881210327	0.0999901294708252
38	187.27372407913208	fix_pre	0		119	36.0	2.5	/experiments/AOT/AOT_stimuli/rescaled_final/1621_rv.mp4	0.0	272.2005889415741	0.9921169281005859
38	188.25019788742065	pulse	0	t		36.0	2.5	/experiments/AOT/AOT_stimuli/rescaled_final/1621_rv.mp4	0.0	273.17706274986267	
38	188.26584100723267	movie	1		246	36.0	2.5	/experiments/AOT/AOT_stimuli/rescaled_final/1621_rv.mp4	0.0	273.1927058696747	2.508297920227051
38	189.85717797279358	pulse	1	t		36.0	2.5	/experiments/AOT/AOT_stimuli/rescaled_final/1621_rv.mp4	0.0	274.7840428352356	
38	190.77413892745972	fix_post	2		12	36.0	2.5	/experiments/AOT/AOT_stimuli/rescaled_final/1621_rv.mp4	0.0	275.70100378990173	0.09964203834533691
39	190.87378096580505	fix_pre	0		120	37.0	2.5	/experiments/AOT/AOT_stimuli/rescaled_final/1822_fw.mp4	0.0	275.80064582824707	1.000136137008667
39	191.44980597496033	pulse	0	t		37.0	2.5	/experiments/AOT/AOT_stimuli/rescaled_final/1822_fw.mp4	0.0	276.37667083740234	
39	191.87391710281372	movie	1		245	37.0	2.5	/experiments/AOT/AOT_stimuli/rescaled_final/1822_fw.mp4	0.0	276.80078196525574	2.4997398853302
39	193.05759501457214	pulse	1	t		37.0	2.5	/experiments/AOT/AOT_stimuli/rescaled_final/1822_fw.mp4	0.0	277.98445987701416	
39	194.37365698814392	fix_post	2		12	37.0	2.5	/experiments/AOT/AOT_stimuli/rescaled_final/1822_fw.mp4	0.0	279.30052185058594	0.10046696662902832
40	194.47412395477295	fix_pre	0		120	38.0	2.5	/experiments/AOT/AOT_stimuli/rescaled_final/0539_rv.mp4	0.0	279.40098881721497	1.000025987625122
40	194.65012907981873	pulse	0	t		38.0	2.5	/experiments/AOT/AOT_stimuli/rescaled_final/0539_rv.mp4	0.0	279.57699394226074	
40	195.47414994239807	movie	1		244	38.0	2.5	/experiments/AOT/AOT_stimuli/rescaled_final/0539_rv.mp4	0.0	280.4010148048401	2.4998490810394287
40	196.25760102272034	pulse	1	t		38.0	2.5	/experiments/AOT/AOT_stimuli/rescaled_final/0539_rv.mp4	0.0	281.18446588516235	
40	197.8561179637909	pulse	1	t		38.0	2.5	/experiments/AOT/AOT_stimuli/rescaled_final/0539_rv.mp4	0.0	282.7829828262329	
40	197.9739990234375	fix_post	2		12	38.0	2.5	/experiments/AOT/AOT_stimuli/rescaled_final/0539_rv.mp4	0.0	282.9008638858795	0.09998703002929688
41	198.0739860534668	fix_pre	0		120	39.0	2.5	/experiments/AOT/AOT_stimuli/rescaled_final/0691_fw.mp4	0.0	283.0008509159088	0.9997029304504395
41	199.07368898391724	movie	1		244	39.0	2.5	/experiments/AOT/AOT_stimuli/rescaled_final/0691_fw.mp4	0.0	284.00055384635925	2.500277042388916
41	199.45690894126892	pulse	1	t		39.0	2.5	/experiments/AOT/AOT_stimuli/rescaled_final/0691_fw.mp4	0.0	284.38377380371094	
41	201.05017399787903	pulse	1	t		39.0	2.5	/experiments/AOT/AOT_stimuli/rescaled_final/0691_fw.mp4	0.0	285.97703886032104	
41	201.57396602630615	fix_post	2		12	39.0	2.5	/experiments/AOT/AOT_stimuli/rescaled_final/0691_fw.mp4	0.0	286.50083088874817	0.10007905960083008
42	201.67404508590698	fix_pre	0		119	40.0	2.5	blank	1.0	286.600909948349	0.9916470050811768
42	202.6500060558319	pulse	0	t		40.0	2.5	blank	1.0	287.5768709182739	
42	202.66569209098816	movie	1		301	40.0	2.5	blank	1.0	287.5925569534302	2.5083279609680176
42	204.24998092651367	pulse	1	t		40.0	2.5	blank	1.0	289.1768457889557	
42	205.17402005195618	fix_post	2		12	40.0	2.5	blank	1.0	290.1008849143982	0.10001993179321289
43	205.2740399837494	fix_pre	0		120	41.0	2.5	/experiments/AOT/AOT_stimuli/rescaled_final/0063_fw.mp4	0.0	290.2009048461914	0.9995710849761963
43	205.8500518798828	pulse	0	t		41.0	2.5	/experiments/AOT/AOT_stimuli/rescaled_final/0063_fw.mp4	0.0	290.77691674232483	
43	206.2736110687256	movie	1		246	41.0	2.5	/experiments/AOT/AOT_stimuli/rescaled_final/0063_fw.mp4	0.0	291.2004759311676	2.500351905822754
43	207.45758509635925	pulse	1	t		41.0	2.5	/experiments/AOT/AOT_stimuli/rescaled_final/0063_fw.mp4	0.0	292.38444995880127	
43	208.77396297454834	fix_post	2		12	41.0	2.5	/experiments/AOT/AOT_stimuli/rescaled_final/0063_fw.mp4	0.0	293.70082783699036	0.10015106201171875
44	208.87411403656006	fix_pre	0		120	42.0	2.5	/experiments/AOT/AOT_stimuli/rescaled_final/1452_rv.mp4	0.0	293.8009788990021	0.9998600482940674
44	209.05014491081238	pulse	0	t		42.0	2.5	/experiments/AOT/AOT_stimuli/rescaled_final/1452_rv.mp4	0.0	293.9770097732544	
44	209.87397408485413	movie	1		244	42.0	2.5	/experiments/AOT/AOT_stimuli/rescaled_final/1452_rv.mp4	0.0	294.80083894729614	2.5000898838043213
44	210.6499969959259	pulse	1	t		42.0	2.5	/experiments/AOT/AOT_stimuli/rescaled_final/1452_rv.mp4	0.0	295.5768618583679	
44	212.2556390762329	pulse	1	t		42.0	2.5	/experiments/AOT/AOT_stimuli/rescaled_final/1452_rv.mp4	0.0	297.1825039386749	
44	212.37406396865845	fix_post	2		12	42.0	2.5	/experiments/AOT/AOT_stimuli/rescaled_final/1452_rv.mp4	0.0	297.30092883110046	0.09949612617492676
45	212.47356009483337	fix_pre	0		120	43.0	2.5	/experiments/AOT/AOT_stimuli/rescaled_final/0821_fw.mp4	0.0	297.4004249572754	1.0003798007965088
45	213.47393989562988	movie	1		244	43.0	2.5	/experiments/AOT/AOT_stimuli/rescaled_final/0821_fw.mp4	0.0	298.4008047580719	2.499958038330078
45	213.8570520877838	pulse	1	t		43.0	2.5	/experiments/AOT/AOT_stimuli/rescaled_final/0821_fw.mp4	0.0	298.78391695022583	
45	215.45752096176147	pulse	1	t		43.0	2.5	/experiments/AOT/AOT_stimuli/rescaled_final/0821_fw.mp4	0.0	300.3843858242035	
45	215.97389793395996	fix_post	2		12	43.0	2.5	/experiments/AOT/AOT_stimuli/rescaled_final/0821_fw.mp4	0.0	300.900762796402	0.09964108467102051
46	216.07353901863098	fix_pre	0		119	44.0	2.5	/experiments/AOT/AOT_stimuli/rescaled_final/1693_rv.mp4	0.0	301.000403881073	0.9920940399169922
46	217.0502119064331	pulse	0	t		44.0	2.5	/experiments/AOT/AOT_stimuli/rescaled_final/1693_rv.mp4	0.0	301.9770767688751	
46	217.06563305854797	movie	1		247	44.0	2.5	/experiments/AOT/AOT_stimuli/rescaled_final/1693_rv.mp4	0.0	301.99249792099	2.508352041244507
46	218.6577169895172	pulse	1	t		44.0	2.5	/experiments/AOT/AOT_stimuli/rescaled_final/1693_rv.mp4	0.0	303.58458185195923	
46	219.57398509979248	fix_post	2		12	44.0	2.5	/experiments/AOT/AOT_stimuli/rescaled_final/1693_rv.mp4	0.0	304.5008499622345	0.1000208854675293
47	219.67400598526	fix_pre	0		120	45.0	2.5	/experiments/AOT/AOT_stimuli/rescaled_final/1587_fw.mp4	0.0	304.600870847702	0.9999480247497559
47	220.24988293647766	pulse	0	t		45.0	2.5	/experiments/AOT/AOT_stimuli/rescaled_final/1587_fw.mp4	0.0	305.1767477989197	
47	220.67395401000977	movie	1		245	45.0	2.5	/experiments/AOT/AOT_stimuli/rescaled_final/1587_fw.mp4	0.0	305.6008188724518	2.500032901763916
47	221.85030698776245	pulse	1	t		45.0	2.5	/experiments/AOT/AOT_stimuli/rescaled_final/1587_fw.mp4	0.0	306.77717185020447	
47	223.17398691177368	fix_post	2		12	45.0	2.5	/experiments/AOT/AOT_stimuli/rescaled_final/1587_fw.mp4	0.0	308.1008517742157	0.09995818138122559
48	223.2739450931549	fix_pre	0		120	46.0	2.5	/experiments/AOT/AOT_stimuli/rescaled_final/0094_rv.mp4	0.0	308.2008099555969	0.9999959468841553
48	223.44995498657227	pulse	0	t		46.0	2.5	/experiments/AOT/AOT_stimuli/rescaled_final/0094_rv.mp4	0.0	308.3768198490143	
48	224.27394104003906	movie	1		243	46.0	2.5	/experiments/AOT/AOT_stimuli/rescaled_final/0094_rv.mp4	0.0	309.2008059024811	2.4996328353881836
48	225.05000591278076	pulse	1	t		46.0	2.5	/experiments/AOT/AOT_stimuli/rescaled_final/0094_rv.mp4	0.0	309.9768707752228	
48	226.6563310623169	pulse	1	t		46.0	2.5	/experiments/AOT/AOT_stimuli/rescaled_final/0094_rv.mp4	0.0	311.5831959247589	
48	226.77357387542725	fix_post	2		12	46.0	2.5	/experiments/AOT/AOT_stimuli/rescaled_final/0094_rv.mp4	0.0	311.70043873786926	0.09999513626098633
49	226.87356901168823	fix_pre	0		120	47.0	2.5	/experiments/AOT/AOT_stimuli/rescaled_final/0014_fw.mp4	0.0	311.80043387413025	0.9999508857727051
49	227.87351989746094	movie	1		247	47.0	2.5	/experiments/AOT/AOT_stimuli/rescaled_final/0014_fw.mp4	0.0	312.80038475990295	2.4999871253967285
49	228.25795888900757	pulse	1	t		47.0	2.5	/experiments/AOT/AOT_stimuli/rescaled_final/0014_fw.mp4	0.0	313.1848237514496	
49	229.8574230670929	pulse	1	t		47.0	2.5	/experiments/AOT/AOT_stimuli/rescaled_final/0014_fw.mp4	0.0	314.7842879295349	
49	230.37350702285767	fix_post	2		12	47.0	2.5	/experiments/AOT/AOT_stimuli/rescaled_final/0014_fw.mp4	0.0	315.3003718852997	0.10035991668701172
50	230.47386693954468	fix_pre	0		119	48.0	2.5	/experiments/AOT/AOT_stimuli/rescaled_final/1723_fw.mp4	0.0	315.4007318019867	0.9918251037597656
50	231.45734906196594	pulse	0	t		48.0	2.5	/experiments/AOT/AOT_stimuli/rescaled_final/1723_fw.mp4	0.0	316.38421392440796	
50	231.46569204330444	movie	1		246	48.0	2.5	/experiments/AOT/AOT_stimuli/rescaled_final/1723_fw.mp4	0.0	316.39255690574646	2.5081520080566406
50	233.05712509155273	pulse	1	t		48.0	2.5	/experiments/AOT/AOT_stimuli/rescaled_final/1723_fw.mp4	0.0	317.98398995399475	
50	233.97384405136108	fix_post	2		12	48.0	2.5	/experiments/AOT/AOT_stimuli/rescaled_final/1723_fw.mp4	0.0	318.9007089138031	0.09964799880981445
51	234.0734920501709	fix_pre	0		120	49.0	2.5	blank	1.0	319.0003569126129	1.0004620552062988
51	234.65735697746277	pulse	0	t		49.0	2.5	blank	1.0	319.5842218399048	
51	235.0739541053772	movie	1		300	49.0	2.5	blank	1.0	320.0008189678192	2.499912977218628
51	236.24989199638367	pulse	1	t		49.0	2.5	blank	1.0	321.1767568588257	
51	237.57386708259583	fix_post	2		12	49.0	2.5	blank	1.0	322.50073194503784	0.10004782676696777
52	237.6739149093628	fix_pre	0		120	50.0	2.5	/experiments/AOT/AOT_stimuli/rescaled_final/1993_rv.mp4	0.0	322.6007797718048	1.0000250339508057
52	237.85003209114075	pulse	0	t		50.0	2.5	/experiments/AOT/AOT_stimuli/rescaled_final/1993_rv.mp4	0.0	322.77689695358276	
52	238.6739399433136	movie	1		244	50.0	2.5	/experiments/AOT/AOT_stimuli/rescaled_final/1993_rv.mp4	0.0	323.6008048057556	2.499917984008789
52	239.4498860836029	pulse	1	t		50.0	2.5	/experiments/AOT/AOT_stimuli/rescaled_final/1993_rv.mp4	0.0	324.3767509460449	
52	241.05592703819275	pulse	1	t		50.0	2.5	/experiments/AOT/AOT_stimuli/rescaled_final/1993_rv.mp4	0.0	325.98279190063477	
52	241.1738579273224	fix_post	2		12	50.0	2.5	/experiments/AOT/AOT_stimuli/rescaled_final/1993_rv.mp4	0.0	326.1007227897644	0.10007309913635254
53	241.27393102645874	fix_pre	0		120	51.0	2.5	/experiments/AOT/AOT_stimuli/rescaled_final/0003_fw.mp4	0.0	326.20079588890076	0.9994940757751465
53	242.2734251022339	movie	1		244	51.0	2.5	/experiments/AOT/AOT_stimuli/rescaled_final/0003_fw.mp4	0.0	327.2002899646759	2.500009775161743
53	242.6572060585022	pulse	1	t		51.0	2.5	/experiments/AOT/AOT_stimuli/rescaled_final/0003_fw.mp4	0.0	327.5840709209442	
53	244.2574338912964	pulse	1	t		51.0	2.5	/experiments/AOT/AOT_stimuli/rescaled_final/0003_fw.mp4	0.0	329.1842987537384	
53	244.77343487739563	fix_post	2		12	51.0	2.5	/experiments/AOT/AOT_stimuli/rescaled_final/0003_fw.mp4	0.0	329.70029973983765	0.10044002532958984
54	244.87387490272522	fix_pre	0		119	52.0	2.5	/experiments/AOT/AOT_stimuli/rescaled_final/1888_rv.mp4	0.0	329.80073976516724	0.991645097732544
54	245.85697102546692	pulse	0	t		52.0	2.5	/experiments/AOT/AOT_stimuli/rescaled_final/1888_rv.mp4	0.0	330.78383588790894	
54	245.86552000045776	movie	1		245	52.0	2.5	/experiments/AOT/AOT_stimuli/rescaled_final/1888_rv.mp4	0.0	330.7923848628998	2.5085699558258057
54	247.4575159549713	pulse	1	t		52.0	2.5	/experiments/AOT/AOT_stimuli/rescaled_final/1888_rv.mp4	0.0	332.38438081741333	
54	248.37408995628357	fix_post	2		12	52.0	2.5	/experiments/AOT/AOT_stimuli/rescaled_final/1888_rv.mp4	0.0	333.3009548187256	0.10004997253417969
55	248.47413992881775	fix_pre	0		120	53.0	2.5	/experiments/AOT/AOT_stimuli/rescaled_final/1593_rv.mp4	0.0	333.40100479125977	0.9993209838867188
55	249.0573079586029	pulse	0	t		53.0	2.5	/experiments/AOT/AOT_stimuli/rescaled_final/1593_rv.mp4	0.0	333.9841728210449	
55	249.47346091270447	movie	1		244	53.0	2.5	/experiments/AOT/AOT_stimuli/rescaled_final/1593_rv.mp4	0.0	334.4003257751465	2.5004661083221436
55	250.65738701820374	pulse	1	t		53.0	2.5	/experiments/AOT/AOT_stimuli/rescaled_final/1593_rv.mp4	0.0	335.58425188064575	
55	251.9739270210266	fix_post	2		12	53.0	2.5	/experiments/AOT/AOT_stimuli/rescaled_final/1593_rv.mp4	0.0	336.9007918834686	0.0998680591583252
56	252.07379508018494	fix_pre	0		120	54.0	2.5	/experiments/AOT/AOT_stimuli/rescaled_final/1486_fw.mp4	0.0	337.00065994262695	1.0000519752502441
56	252.2573549747467	pulse	0	t		54.0	2.5	/experiments/AOT/AOT_stimuli/rescaled_final/1486_fw.mp4	0.0	337.1842198371887	
56	253.07384705543518	movie	1		245	54.0	2.5	/experiments/AOT/AOT_stimuli/rescaled_final/1486_fw.mp4	0.0	338.0007119178772	2.499948024749756
56	253.84980988502502	pulse	1	t		54.0	2.5	/experiments/AOT/AOT_stimuli/rescaled_final/1486_fw.mp4	0.0	338.77667474746704	
56	255.45588898658752	pulse	1	t		54.0	2.5	/experiments/AOT/AOT_stimuli/rescaled_final/1486_fw.mp4	0.0	340.38275384902954	
56	255.57379508018494	fix_post	2		12	54.0	2.5	/experiments/AOT/AOT_stimuli/rescaled_final/1486_fw.mp4	0.0	340.50065994262695	0.09998703002929688
57	255.67378211021423	fix_pre	0		120	55.0	2.5	/experiments/AOT/AOT_stimuli/rescaled_final/0512_rv.mp4	0.0	340.60064697265625	0.9995808601379395
57	256.6733629703522	movie	1		247	55.0	2.5	/experiments/AOT/AOT_stimuli/rescaled_final/0512_rv.mp4	0.0	341.6002278327942	2.500335931777954
57	257.05683994293213	pulse	1	t		55.0	2.5	/experiments/AOT/AOT_stimuli/rescaled_final/0512_rv.mp4	0.0	341.98370480537415	
57	258.6499938964844	pulse	1	t		55.0	2.5	/experiments/AOT/AOT_stimuli/rescaled_final/0512_rv.mp4	0.0	343.5768587589264	
57	259.1736989021301	fix_post	2		12	55.0	2.5	/experiments/AOT/AOT_stimuli/rescaled_final/0512_rv.mp4	0.0	344.10056376457214	0.10002517700195312
58	259.2737240791321	fix_pre	0		119	56.0	2.5	blank	1.0	344.2005889415741	0.9917519092559814
58	260.24985790252686	pulse	0	t		56.0	2.5	blank	1.0	345.1767227649689	
58	260.26547598838806	movie	1		301	56.0	2.5	blank	1.0	345.1923408508301	2.5082619190216064
58	261.8573188781738	pulse	1	t		56.0	2.5	blank	1.0	346.78418374061584	
58	262.77373790740967	fix_post	2		12	56.0	2.5	blank	1.0	347.7006027698517	0.09999513626098633
59	262.87373304367065	fix_pre	0		120	57.0	2.5	/experiments/AOT/AOT_stimuli/rescaled_final/0963_rv.mp4	0.0	347.80059790611267	0.9999918937683105
59	263.4571850299835	pulse	0	t		57.0	2.5	/experiments/AOT/AOT_stimuli/rescaled_final/0963_rv.mp4	0.0	348.38404989242554	
59	263.87372493743896	movie	1		243	57.0	2.5	/experiments/AOT/AOT_stimuli/rescaled_final/0963_rv.mp4	0.0	348.800589799881	2.4999680519104004
59	265.05730390548706	pulse	1	t		57.0	2.5	/experiments/AOT/AOT_stimuli/rescaled_final/0963_rv.mp4	0.0	349.9841687679291	
59	266.37369298934937	fix_post	2		12	57.0	2.5	/experiments/AOT/AOT_stimuli/rescaled_final/0963_rv.mp4	0.0	351.3005578517914	0.10008406639099121
60	266.47377705574036	fix_pre	0		120	58.0	2.5	/experiments/AOT/AOT_stimuli/rescaled_final/0483_rv.mp4	0.0	351.4006419181824	0.9995598793029785
60	266.65730690956116	pulse	0	t		58.0	2.5	/experiments/AOT/AOT_stimuli/rescaled_final/0483_rv.mp4	0.0	351.5841717720032	
60	267.47333693504333	movie	1		245	58.0	2.5	/experiments/AOT/AOT_stimuli/rescaled_final/0483_rv.mp4	0.0	352.40020179748535	2.5003321170806885
60	268.2571759223938	pulse	1	t		58.0	2.5	/experiments/AOT/AOT_stimuli/rescaled_final/0483_rv.mp4	0.0	353.1840407848358	
60	269.8532888889313	pulse	1	t		58.0	2.5	/experiments/AOT/AOT_stimuli/rescaled_final/0483_rv.mp4	0.0	354.7801537513733	
60	269.973669052124	fix_post	2		12	58.0	2.5	/experiments/AOT/AOT_stimuli/rescaled_final/0483_rv.mp4	0.0	354.90053391456604	0.1000819206237793
61	270.0737509727478	fix_pre	0		120	59.0	2.5	/experiments/AOT/AOT_stimuli/rescaled_final/1379_rv.mp4	0.0	355.0006158351898	1.0000460147857666
61	271.07379698753357	movie	1		244	59.0	2.5	/experiments/AOT/AOT_stimuli/rescaled_final/1379_rv.mp4	0.0	356.0006618499756	2.4999470710754395
61	271.4567520618439	pulse	1	t		59.0	2.5	/experiments/AOT/AOT_stimuli/rescaled_final/1379_rv.mp4	0.0	356.3836169242859	
61	273.0498321056366	pulse	1	t		59.0	2.5	/experiments/AOT/AOT_stimuli/rescaled_final/1379_rv.mp4	0.0	357.9766969680786	
61	273.573744058609	fix_post	2		12	59.0	2.5	/experiments/AOT/AOT_stimuli/rescaled_final/1379_rv.mp4	0.0	358.500608921051	0.09996199607849121
62	273.6737060546875	fix_pre	0		119	60.0	2.5	/experiments/AOT/AOT_stimuli/rescaled_final/0154_fw.mp4	0.0	358.6005709171295	0.9916470050811768
62	274.64970088005066	pulse	0	t		60.0	2.5	/experiments/AOT/AOT_stimuli/rescaled_final/0154_fw.mp4	0.0	359.5765657424927	
62	274.6653530597687	movie	1		248	60.0	2.5	/experiments/AOT/AOT_stimuli/rescaled_final/0154_fw.mp4	0.0	359.5922179222107	2.5079538822174072
62	276.25652599334717	pulse	1	t		60.0	2.5	/experiments/AOT/AOT_stimuli/rescaled_final/0154_fw.mp4	0.0	361.1833908557892	
62	277.1733069419861	fix_post	2		12	60.0	2.5	/experiments/AOT/AOT_stimuli/rescaled_final/0154_fw.mp4	0.0	362.1001718044281	0.10037398338317871
63	277.27368092536926	fix_pre	0		120	61.0	2.5	/experiments/AOT/AOT_stimuli/rescaled_final/1739_rv.mp4	0.0	362.2005457878113	0.999582052230835
63	277.85724687576294	pulse	0	t		61.0	2.5	/experiments/AOT/AOT_stimuli/rescaled_final/1739_rv.mp4	0.0	362.78411173820496	
63	278.2732629776001	movie	1		245	61.0	2.5	/experiments/AOT/AOT_stimuli/rescaled_final/1739_rv.mp4	0.0	363.2001278400421	2.5003790855407715
63	279.4572379589081	pulse	1	t		61.0	2.5	/experiments/AOT/AOT_stimuli/rescaled_final/1739_rv.mp4	0.0	364.3841028213501	
63	280.77364206314087	fix_post	2		12	61.0	2.5	/experiments/AOT/AOT_stimuli/rescaled_final/1739_rv.mp4	0.0	365.7005069255829	0.1000509262084961
64	280.87369298934937	fix_pre	0		120	62.0	2.5	blank	1.0	365.8005578517914	1.0000369548797607
64	281.0572109222412	pulse	0	t		62.0	2.5	blank	1.0	365.9840757846832	
64	281.8737299442291	movie	1		300	62.0	2.5	blank	1.0	366.80059480667114	2.4995369911193848
64	282.6571741104126	pulse	1	t		62.0	2.5	blank	1.0	367.5840389728546	
64	284.2571530342102	pulse	1	t		62.0	2.5	blank	1.0	369.1840178966522	
64	284.3732669353485	fix_post	2		12	62.0	2.5	blank	1.0	369.3001317977905	0.10053300857543945
65	284.47379994392395	fix_pre	0		120	63.0	2.5	/experiments/AOT/AOT_stimuli/rescaled_final/0512_fw.mp4	0.0	369.40066480636597	0.999413013458252
65	285.4732129573822	movie	1		245	63.0	2.5	/experiments/AOT/AOT_stimuli/rescaled_final/0512_fw.mp4	0.0	370.4000778198242	2.500005006790161
65	285.85711002349854	pulse	1	t		63.0	2.5	/experiments/AOT/AOT_stimuli/rescaled_final/0512_fw.mp4	0.0	370.78397488594055	
65	287.45716404914856	pulse	1	t		63.0	2.5	/experiments/AOT/AOT_stimuli/rescaled_final/0512_fw.mp4	0.0	372.3840289115906	
65	287.97321796417236	fix_post	2		12	63.0	2.5	/experiments/AOT/AOT_stimuli/rescaled_final/0512_fw.mp4	0.0	372.9000828266144	0.10040402412414551
66	288.0736219882965	fix_pre	0		119	64.0	2.5	/experiments/AOT/AOT_stimuli/rescaled_final/0230_fw.mp4	0.0	373.0004868507385	0.9916479587554932
66	289.0571360588074	pulse	0	t		64.0	2.5	/experiments/AOT/AOT_stimuli/rescaled_final/0230_fw.mp4	0.0	373.9840009212494	
66	289.065269947052	movie	1		244	64.0	2.5	/experiments/AOT/AOT_stimuli/rescaled_final/0230_fw.mp4	0.0	373.992134809494	2.5082740783691406
66	290.6569290161133	pulse	1	t		64.0	2.5	/experiments/AOT/AOT_stimuli/rescaled_final/0230_fw.mp4	0.0	375.5837938785553	
66	291.57354402542114	fix_post	2		12	64.0	2.5	/experiments/AOT/AOT_stimuli/rescaled_final/0230_fw.mp4	0.0	376.50040888786316	0.10011506080627441
67	291.6736590862274	fix_pre	0		120	65.0	2.5	/experiments/AOT/AOT_stimuli/rescaled_final/0220_rv.mp4	0.0	376.60052394866943	0.9999039173126221
67	292.2496180534363	pulse	0	t		65.0	2.5	/experiments/AOT/AOT_stimuli/rescaled_final/0220_rv.mp4	0.0	377.1764829158783	
67	292.67356300354004	movie	1		245	65.0	2.5	/experiments/AOT/AOT_stimuli/rescaled_final/0220_rv.mp4	0.0	377.60042786598206	2.499630928039551
67	293.85715508461	pulse	1	t		65.0	2.5	/experiments/AOT/AOT_stimuli/rescaled_final/0220_rv.mp4	0.0	378.784019947052	
67	295.1731939315796	fix_post	2		12	65.0	2.5	/experiments/AOT/AOT_stimuli/rescaled_final/0220_rv.mp4	0.0	380.1000587940216	0.10039401054382324
68	295.2735879421234	fix_pre	0		120	66.0	2.5	/experiments/AOT/AOT_stimuli/rescaled_final/1435_fw.mp4	0.0	380.20045280456543	1.000072956085205
68	295.4570291042328	pulse	0	t		66.0	2.5	/experiments/AOT/AOT_stimuli/rescaled_final/1435_fw.mp4	0.0	380.3838939666748	
68	296.2736608982086	movie	1		243	66.0	2.5	/experiments/AOT/AOT_stimuli/rescaled_final/1435_fw.mp4	0.0	381.20052576065063	2.4998340606689453
68	297.05711793899536	pulse	1	t		66.0	2.5	/experiments/AOT/AOT_stimuli/rescaled_final/1435_fw.mp4	0.0	381.9839828014374	
68	298.6557059288025	pulse	1	t		66.0	2.5	/experiments/AOT/AOT_stimuli/rescaled_final/1435_fw.mp4	0.0	383.5825707912445	
68	298.77349495887756	fix_post	2		12	66.0	2.5	/experiments/AOT/AOT_stimuli/rescaled_final/1435_fw.mp4	0.0	383.7003598213196	0.10009598731994629
69	298.8735909461975	fix_pre	0		120	67.0	2.5	/experiments/AOT/AOT_stimuli/rescaled_final/1992_rv.mp4	0.0	383.8004558086395	1.000020980834961
69	299.87361192703247	movie	1		246	67.0	2.5	/experiments/AOT/AOT_stimuli/rescaled_final/1992_rv.mp4	0.0	384.8004767894745	2.4997241497039795
69	300.2568008899689	pulse	1	t		67.0	2.5	/experiments/AOT/AOT_stimuli/rescaled_final/1992_rv.mp4	0.0	385.1836657524109	
69	301.85701394081116	pulse	1	t		67.0	2.5	/experiments/AOT/AOT_stimuli/rescaled_final/1992_rv.mp4	0.0	386.7838788032532	
69	302.37333607673645	fix_post	2		12	67.0	2.5	/experiments/AOT/AOT_stimuli/rescaled_final/1992_rv.mp4	0.0	387.30020093917847	0.1002810001373291
70	302.4736170768738	fix_pre	0		119	68.0	2.5	blank	1.0	387.4004819393158	0.9918248653411865
70	303.45687794685364	pulse	0	t		68.0	2.5	blank	1.0	388.38374280929565	
70	303.46544194221497	movie	1		301	68.0	2.5	blank	1.0	388.392306804657	2.507801055908203
70	305.05709505081177	pulse	1	t		68.0	2.5	blank	1.0	389.9839599132538	
70	305.97324299812317	fix_post	2		12	68.0	2.5	blank	1.0	390.9001078605652	0.10039496421813965
71	306.0736379623413	fix_pre	0		120	69.0	2.5	/experiments/AOT/AOT_stimuli/rescaled_final/1029_fw.mp4	0.0	391.0005028247833	0.9995729923248291
71	306.657084941864	pulse	0	t		69.0	2.5	/experiments/AOT/AOT_stimuli/rescaled_final/1029_fw.mp4	0.0	391.58394980430603	
71	307.07321095466614	movie	1		244	69.0	2.5	/experiments/AOT/AOT_stimuli/rescaled_final/1029_fw.mp4	0.0	392.00007581710815	2.5004429817199707
71	308.2571280002594	pulse	1	t		69.0	2.5	/experiments/AOT/AOT_stimuli/rescaled_final/1029_fw.mp4	0.0	393.1839928627014	
71	309.5736539363861	fix_post	2		12	69.0	2.5	/experiments/AOT/AOT_stimuli/rescaled_final/1029_fw.mp4	0.0	394.5005187988281	0.09993314743041992
72	309.6735870838165	fix_pre	0		120	70.0	2.5	/experiments/AOT/AOT_stimuli/rescaled_final/1693_rv.mp4	0.0	394.60045194625854	0.9999568462371826
72	309.8570148944855	pulse	0	t		70.0	2.5	/experiments/AOT/AOT_stimuli/rescaled_final/1693_rv.mp4	0.0	394.7838797569275	
72	310.6735439300537	movie	1		246	70.0	2.5	/experiments/AOT/AOT_stimuli/rescaled_final/1693_rv.mp4	0.0	395.6004087924957	2.4999959468841553
72	311.4570059776306	pulse	1	t		70.0	2.5	/experiments/AOT/AOT_stimuli/rescaled_final/1693_rv.mp4	0.0	396.38387084007263	
72	313.0570719242096	pulse	1	t		70.0	2.5	/experiments/AOT/AOT_stimuli/rescaled_final/1693_rv.mp4	0.0	397.9839367866516	
72	313.17353987693787	fix_post	2		12	70.0	2.5	/experiments/AOT/AOT_stimuli/rescaled_final/1693_rv.mp4	0.0	398.1004047393799	0.09964799880981445
73	313.2731878757477	fix_pre	0		120	71.0	2.5	/experiments/AOT/AOT_stimuli/rescaled_final/0002_rv.mp4	0.0	398.2000527381897	1.000364065170288
73	314.27355194091797	movie	1		245	71.0	2.5	/experiments/AOT/AOT_stimuli/rescaled_final/0002_rv.mp4	0.0	399.20041680336	2.5005741119384766
73	314.65822291374207	pulse	1	t		71.0	2.5	/experiments/AOT/AOT_stimuli/rescaled_final/0002_rv.mp4	0.0	399.5850877761841	
73	316.25693702697754	pulse	1	t		71.0	2.5	/experiments/AOT/AOT_stimuli/rescaled_final/0002_rv.mp4	0.0	401.18380188941956	
73	316.77412605285645	fix_post	2		12	71.0	2.5	/experiments/AOT/AOT_stimuli/rescaled_final/0002_rv.mp4	0.0	401.70099091529846	0.09939193725585938
74	316.8735179901123	fix_pre	0		119	72.0	2.5	/experiments/AOT/AOT_stimuli/rescaled_final/0865_rv.mp4	0.0	401.8003828525543	0.9916799068450928
74	317.8569231033325	pulse	0	t		72.0	2.5	/experiments/AOT/AOT_stimuli/rescaled_final/0865_rv.mp4	0.0	402.78378796577454	
74	317.8651978969574	movie	1		246	72.0	2.5	/experiments/AOT/AOT_stimuli/rescaled_final/0865_rv.mp4	0.0	402.7920627593994	2.5078930854797363
74	319.457279920578	pulse	1	t		72.0	2.5	/experiments/AOT/AOT_stimuli/rescaled_final/0865_rv.mp4	0.0	404.38414478302	
74	320.37309098243713	fix_post	2		12	72.0	2.5	/experiments/AOT/AOT_stimuli/rescaled_final/0865_rv.mp4	0.0	405.29995584487915	0.1004951000213623
75	320.4735860824585	fix_pre	0		120	73.0	2.5	/experiments/AOT/AOT_stimuli/rescaled_final/1434_fw.mp4	0.0	405.4004509449005	0.9999489784240723
75	321.0570080280304	pulse	0	t		73.0	2.5	/experiments/AOT/AOT_stimuli/rescaled_final/1434_fw.mp4	0.0	405.9838728904724	
75	321.47353506088257	movie	1		244	73.0	2.5	/experiments/AOT/AOT_stimuli/rescaled_final/1434_fw.mp4	0.0	406.4003999233246	2.499871015548706
75	322.65705609321594	pulse	1	t		73.0	2.5	/experiments/AOT/AOT_stimuli/rescaled_final/1434_fw.mp4	0.0	407.58392095565796	
75	323.9734060764313	fix_post	2		12	73.0	2.5	/experiments/AOT/AOT_stimuli/rescaled_final/1434_fw.mp4	0.0	408.9002709388733	0.10003089904785156
76	324.0734369754791	fix_pre	0		120	74.0	2.5	/experiments/AOT/AOT_stimuli/rescaled_final/0281_rv.mp4	0.0	409.00030183792114	0.9999608993530273
76	324.24948501586914	pulse	0	t		74.0	2.5	/experiments/AOT/AOT_stimuli/rescaled_final/0281_rv.mp4	0.0	409.17634987831116	
76	325.07339787483215	movie	1		247	74.0	2.5	/experiments/AOT/AOT_stimuli/rescaled_final/0281_rv.mp4	0.0	410.00026273727417	2.5000760555267334
76	325.8569860458374	pulse	1	t		74.0	2.5	/experiments/AOT/AOT_stimuli/rescaled_final/0281_rv.mp4	0.0	410.7838509082794	
76	327.45654702186584	pulse	1	t		74.0	2.5	/experiments/AOT/AOT_stimuli/rescaled_final/0281_rv.mp4	0.0	412.38341188430786	
76	327.5734739303589	fix_post	2		12	74.0	2.5	/experiments/AOT/AOT_stimuli/rescaled_final/0281_rv.mp4	0.0	412.5003387928009	0.09960103034973145
77	327.6730749607086	fix_pre	0		120	75.0	2.5	blank	1.0	412.59993982315063	1.00034499168396
77	328.6734199523926	movie	1		300	75.0	2.5	blank	1.0	413.6002848148346	2.4999840259552
77	329.0569748878479	pulse	1	t		75.0	2.5	blank	1.0	413.9838397502899	
77	330.6569399833679	pulse	1	t		75.0	2.5	blank	1.0	415.58380484580994	
77	331.1734039783478	fix_post	2		12	75.0	2.5	blank	1.0	416.1002688407898	0.09956002235412598
78	331.2729640007019	fix_pre	0		119	76.0	2.5	/experiments/AOT/AOT_stimuli/rescaled_final/1768_rv.mp4	0.0	416.1998288631439	0.9921360015869141
78	332.2570230960846	pulse	0	t		76.0	2.5	/experiments/AOT/AOT_stimuli/rescaled_final/1768_rv.mp4	0.0	417.1838879585266	
78	332.2651000022888	movie	1		244	76.0	2.5	/experiments/AOT/AOT_stimuli/rescaled_final/1768_rv.mp4	0.0	417.19196486473083	2.508254051208496
78	333.85642409324646	pulse	1	t		76.0	2.5	/experiments/AOT/AOT_stimuli/rescaled_final/1768_rv.mp4	0.0	418.7832889556885	
78	334.7733540534973	fix_post	2		12	76.0	2.5	/experiments/AOT/AOT_stimuli/rescaled_final/1768_rv.mp4	0.0	419.70021891593933	0.10001897811889648
79	334.8733730316162	fix_pre	0		120	77.0	2.5	/experiments/AOT/AOT_stimuli/rescaled_final/1084_fw.mp4	0.0	419.8002378940582	1.0000360012054443
79	335.456964969635	pulse	0	t		77.0	2.5	/experiments/AOT/AOT_stimuli/rescaled_final/1084_fw.mp4	0.0	420.383829832077	
79	335.87340903282166	movie	1		245	77.0	2.5	/experiments/AOT/AOT_stimuli/rescaled_final/1084_fw.mp4	0.0	420.8002738952637	2.499955892562866
79	337.0569760799408	pulse	1	t		77.0	2.5	/experiments/AOT/AOT_stimuli/rescaled_final/1084_fw.mp4	0.0	421.9838409423828	
79	338.3733649253845	fix_post	2		12	77.0	2.5	/experiments/AOT/AOT_stimuli/rescaled_final/1084_fw.mp4	0.0	423.30022978782654	0.1000680923461914
80	338.4734330177307	fix_pre	0		120	78.0	2.5	/experiments/AOT/AOT_stimuli/rescaled_final/1016_rv.mp4	0.0	423.40029788017273	1.000032901763916
80	338.6572289466858	pulse	0	t		78.0	2.5	/experiments/AOT/AOT_stimuli/rescaled_final/1016_rv.mp4	0.0	423.5840938091278	
80	339.47346591949463	movie	1		245	78.0	2.5	/experiments/AOT/AOT_stimuli/rescaled_final/1016_rv.mp4	0.0	424.40033078193665	2.4994821548461914
80	340.2569069862366	pulse	1	t		78.0	2.5	/experiments/AOT/AOT_stimuli/rescaled_final/1016_rv.mp4	0.0	425.1837718486786	
80	341.8555979728699	pulse	1	t		78.0	2.5	/experiments/AOT/AOT_stimuli/rescaled_final/1016_rv.mp4	0.0	426.7824628353119	
80	341.9729480743408	fix_post	2		12	78.0	2.5	/experiments/AOT/AOT_stimuli/rescaled_final/1016_rv.mp4	0.0	426.89981293678284	0.10038399696350098
81	342.0733320713043	fix_pre	0		120	79.0	2.5	/experiments/AOT/AOT_stimuli/rescaled_final/1482_fw.mp4	0.0	427.00019693374634	1.000006914138794
81	343.0733389854431	movie	1		244	79.0	2.5	/experiments/AOT/AOT_stimuli/rescaled_final/1482_fw.mp4	0.0	428.00020384788513	2.4999380111694336
81	343.456316947937	pulse	1	t		79.0	2.5	/experiments/AOT/AOT_stimuli/rescaled_final/1482_fw.mp4	0.0	428.383181810379	
81	345.0568950176239	pulse	1	t		79.0	2.5	/experiments/AOT/AOT_stimuli/rescaled_final/1482_fw.mp4	0.0	429.9837598800659	
81	345.57327699661255	fix_post	2		12	79.0	2.5	/experiments/AOT/AOT_stimuli/rescaled_final/1482_fw.mp4	0.0	430.50014185905457	0.10011792182922363
82	345.6733949184418	fix_pre	0		119	80.0	2.5	/experiments/AOT/AOT_stimuli/rescaled_final/1358_rv.mp4	0.0	430.6002597808838	0.9916431903839111
82	346.65685391426086	pulse	0	t		80.0	2.5	/experiments/AOT/AOT_stimuli/rescaled_final/1358_rv.mp4	0.0	431.5837187767029	
82	346.6650381088257	movie	1		244	80.0	2.5	/experiments/AOT/AOT_stimuli/rescaled_final/1358_rv.mp4	0.0	431.5919029712677	2.5078518390655518
82	348.2567811012268	pulse	1	t		80.0	2.5	/experiments/AOT/AOT_stimuli/rescaled_final/1358_rv.mp4	0.0	433.1836459636688	
82	349.17288994789124	fix_post	2		12	80.0	2.5	/experiments/AOT/AOT_stimuli/rescaled_final/1358_rv.mp4	0.0	434.09975481033325	0.1004190444946289
83	349.27330899238586	fix_pre	0		120	81.0	2.5	/experiments/AOT/AOT_stimuli/rescaled_final/1586_fw.mp4	0.0	434.2001738548279	0.9999868869781494
83	349.8568329811096	pulse	0	t		81.0	2.5	/experiments/AOT/AOT_stimuli/rescaled_final/1586_fw.mp4	0.0	434.78369784355164	
83	350.273295879364	movie	1		244	81.0	2.5	/experiments/AOT/AOT_stimuli/rescaled_final/1586_fw.mp4	0.0	435.20016074180603	2.499667167663574
83	351.4569020271301	pulse	1	t		81.0	2.5	/experiments/AOT/AOT_stimuli/rescaled_final/1586_fw.mp4	0.0	436.38376688957214	
83	352.7729630470276	fix_post	2		12	81.0	2.5	/experiments/AOT/AOT_stimuli/rescaled_final/1586_fw.mp4	0.0	437.6998279094696	0.10032796859741211
84	352.873291015625	fix_pre	0		120	82.0	2.5	/experiments/AOT/AOT_stimuli/rescaled_final/2080_rv.mp4	0.0	437.800155878067	1.0000009536743164
84	353.0568308830261	pulse	0	t		82.0	2.5	/experiments/AOT/AOT_stimuli/rescaled_final/2080_rv.mp4	0.0	437.98369574546814	
84	353.8732919692993	movie	1		244	82.0	2.5	/experiments/AOT/AOT_stimuli/rescaled_final/2080_rv.mp4	0.0	438.80015683174133	2.4999849796295166
84	354.65673089027405	pulse	1	t		82.0	2.5	/experiments/AOT/AOT_stimuli/rescaled_final/2080_rv.mp4	0.0	439.58359575271606	
84	356.2556610107422	pulse	1	t		82.0	2.5	/experiments/AOT/AOT_stimuli/rescaled_final/2080_rv.mp4	0.0	441.1825258731842	
84	356.37327694892883	fix_post	2		12	82.0	2.5	/experiments/AOT/AOT_stimuli/rescaled_final/2080_rv.mp4	0.0	441.30014181137085	0.1002190113067627
85	356.4734959602356	fix_pre	0		120	83.0	2.5	blank	1.0	441.4003608226776	0.9994540214538574
85	357.47294998168945	movie	1		300	83.0	2.5	blank	1.0	442.39981484413147	2.5006520748138428
85	357.856409072876	pulse	1	t		83.0	2.5	blank	1.0	442.783273935318	
85	359.45651507377625	pulse	1	t		83.0	2.5	blank	1.0	444.38337993621826	
85	359.9736020565033	fix_post	2		12	83.0	2.5	blank	1.0	444.9004669189453	0.09953498840332031
87	360.0731370449066	stim	0		1716					445.00000190734863	14.30013394355774
87	361.0568571090698	pulse	0	t						445.98372197151184	
87	362.65678811073303	pulse	0	t						447.58365297317505	
87	364.25677609443665	pulse	0	t						449.18364095687866	
87	365.8567280769348	pulse	0	t						450.78359293937683	
87	367.4567630290985	pulse	0	t						452.3836278915405	
87	369.0567009449005	pulse	0	t						453.98356580734253	
87	370.6566689014435	pulse	0	t						455.5835337638855	
87	372.2567329406738	pulse	0	t						457.18359780311584	
87	373.8566930294037	pulse	0	t						458.7835578918457	
