trial_nr	onset	event_type	phase	response	nr_frames	movie_index	movie_duration	movie_file	blank	onset_abs	duration
0	0.16649723052978516	stim	0		20					23.11917519569397	0.1665799617767334
0	0.3251197338104248	response	0	space						23.27779769897461	
1	0.33307719230651855	stim	0		4908					23.285755157470703	40.91508412361145
1	41.2365186214447	pulse	0	t						64.18919658660889	
1	41.24816131591797	stim	1		1715					64.20083928108215	14.301701784133911
1	42.831368923187256	pulse	1	t						65.78404688835144	
1	44.43157649040222	pulse	1	t						67.3842544555664	
1	46.03183388710022	pulse	1	t						68.9845118522644	
1	47.632044315338135	pulse	1	t						70.58472228050232	
1	49.23229002952576	pulse	1	t						72.18496799468994	
1	50.83252763748169	pulse	1	t						73.78520560264587	
1	52.432798624038696	pulse	1	t						75.38547658920288	
1	54.033053159713745	pulse	1	t						76.98573112487793	
2	55.54986310005188	fix_pre	0		11	0.0	2.5	/experiments/Knapen_AOT/AOT_stimuli/rescaled_final/1899_rv.mp4	0.0	78.50254106521606	0.1166069507598877
2	55.63346529006958	pulse	0	t		0.0	2.5	/experiments/Knapen_AOT/AOT_stimuli/rescaled_final/1899_rv.mp4	0.0	78.58614325523376	
2	55.66647005081177	movie	1		289	0.0	2.5	/experiments/Knapen_AOT/AOT_stimuli/rescaled_final/1899_rv.mp4	0.0	78.61914801597595	2.4836573600769043
2	57.2318377494812	pulse	1	t		0.0	2.5	/experiments/Knapen_AOT/AOT_stimuli/rescaled_final/1899_rv.mp4	0.0	80.18451571464539	
2	58.15012741088867	fix_post	2		12	0.0	2.5	/experiments/Knapen_AOT/AOT_stimuli/rescaled_final/1899_rv.mp4	0.0	81.10280537605286	0.10006308555603027
3	58.2501904964447	fix_pre	0		120	1.0	2.5	/experiments/Knapen_AOT/AOT_stimuli/rescaled_final/2041_fw.mp4	0.0	81.20286846160889	1.0084686279296875
3	58.8337938785553	pulse	0	t		1.0	2.5	/experiments/Knapen_AOT/AOT_stimuli/rescaled_final/2041_fw.mp4	0.0	81.78647184371948	
3	59.25865912437439	movie	1		292	1.0	2.5	/experiments/Knapen_AOT/AOT_stimuli/rescaled_final/2041_fw.mp4	0.0	82.21133708953857	2.492018461227417
3	60.43257784843445	pulse	1	t		1.0	2.5	/experiments/Knapen_AOT/AOT_stimuli/rescaled_final/2041_fw.mp4	0.0	83.38525581359863	
3	61.75067758560181	fix_post	2		12	1.0	2.5	/experiments/Knapen_AOT/AOT_stimuli/rescaled_final/2041_fw.mp4	0.0	84.70335555076599	0.10002708435058594
4	61.85070466995239	fix_pre	0		120	2.0	2.5	/experiments/Knapen_AOT/AOT_stimuli/rescaled_final/1956_rv.mp4	0.0	84.80338263511658	1.0084986686706543
4	62.034358501434326	pulse	0	t		2.0	2.5	/experiments/Knapen_AOT/AOT_stimuli/rescaled_final/1956_rv.mp4	0.0	84.98703646659851	
4	62.85920333862305	movie	1		292	2.0	2.5	/experiments/Knapen_AOT/AOT_stimuli/rescaled_final/1956_rv.mp4	0.0	85.81188130378723	2.492011785507202
4	63.63235402107239	pulse	1	t		2.0	2.5	/experiments/Knapen_AOT/AOT_stimuli/rescaled_final/1956_rv.mp4	0.0	86.58503198623657	
4	65.23281979560852	pulse	1	t		2.0	2.5	/experiments/Knapen_AOT/AOT_stimuli/rescaled_final/1956_rv.mp4	0.0	88.1854977607727	
4	65.35121512413025	fix_post	2		12	2.0	2.5	/experiments/Knapen_AOT/AOT_stimuli/rescaled_final/1956_rv.mp4	0.0	88.30389308929443	0.10002374649047852
5	65.45123887062073	fix_pre	0		120	3.0	2.5	/experiments/Knapen_AOT/AOT_stimuli/rescaled_final/1039_fw.mp4	0.0	88.40391683578491	1.0085275173187256
5	66.45976638793945	movie	1		286	3.0	2.5	/experiments/Knapen_AOT/AOT_stimuli/rescaled_final/1039_fw.mp4	0.0	89.41244435310364	2.492025136947632
5	66.83361864089966	pulse	1	t		3.0	2.5	/experiments/Knapen_AOT/AOT_stimuli/rescaled_final/1039_fw.mp4	0.0	89.78629660606384	
5	68.4330542087555	pulse	1	t		3.0	2.5	/experiments/Knapen_AOT/AOT_stimuli/rescaled_final/1039_fw.mp4	0.0	91.38573217391968	
5	68.95179152488708	fix_post	2		12	3.0	2.5	/experiments/Knapen_AOT/AOT_stimuli/rescaled_final/1039_fw.mp4	0.0	91.90446949005127	0.1000068187713623
6	69.05179834365845	fix_pre	0		119	4.0	2.5	/experiments/Knapen_AOT/AOT_stimuli/rescaled_final/0877_rv.mp4	0.0	92.00447630882263	1.0001609325408936
6	70.03542995452881	pulse	0	t		4.0	2.5	/experiments/Knapen_AOT/AOT_stimuli/rescaled_final/0877_rv.mp4	0.0	92.988107919693	
6	70.05195927619934	movie	1		289	4.0	2.5	/experiments/Knapen_AOT/AOT_stimuli/rescaled_final/0877_rv.mp4	0.0	93.00463724136353	2.5003485679626465
6	71.63451623916626	pulse	1	t		4.0	2.5	/experiments/Knapen_AOT/AOT_stimuli/rescaled_final/0877_rv.mp4	0.0	94.58719420433044	
6	72.55230784416199	fix_post	2		12	4.0	2.5	/experiments/Knapen_AOT/AOT_stimuli/rescaled_final/0877_rv.mp4	0.0	95.50498580932617	0.10001611709594727
7	72.65232396125793	fix_pre	0		120	5.0	2.5	blank	1.0	95.60500192642212	1.0001389980316162
7	73.23594975471497	pulse	0	t		5.0	2.5	blank	1.0	96.18862771987915	
7	73.65246295928955	movie	1		300	5.0	2.5	blank	1.0	96.60514092445374	2.500437021255493
7	74.83630728721619	pulse	1	t		5.0	2.5	blank	1.0	97.78898525238037	
7	76.15289998054504	fix_post	2		12	5.0	2.5	blank	1.0	99.10557794570923	0.09999299049377441
8	76.25289297103882	fix_pre	0		120	6.0	2.5	/experiments/Knapen_AOT/AOT_stimuli/rescaled_final/0460_fw.mp4	0.0	99.205570936203	1.0084519386291504
8	76.43645977973938	pulse	0	t		6.0	2.5	/experiments/Knapen_AOT/AOT_stimuli/rescaled_final/0460_fw.mp4	0.0	99.38913774490356	
8	77.26134490966797	movie	1		287	6.0	2.5	/experiments/Knapen_AOT/AOT_stimuli/rescaled_final/0460_fw.mp4	0.0	100.21402287483215	2.492047071456909
8	78.0347843170166	pulse	1	t		6.0	2.5	/experiments/Knapen_AOT/AOT_stimuli/rescaled_final/0460_fw.mp4	0.0	100.98746228218079	
8	79.63507270812988	pulse	1	t		6.0	2.5	/experiments/Knapen_AOT/AOT_stimuli/rescaled_final/0460_fw.mp4	0.0	102.58775067329407	
8	79.75339198112488	fix_post	2		12	6.0	2.5	/experiments/Knapen_AOT/AOT_stimuli/rescaled_final/0460_fw.mp4	0.0	102.70606994628906	0.10001325607299805
9	79.85340523719788	fix_pre	0		120	7.0	2.5	/experiments/Knapen_AOT/AOT_stimuli/rescaled_final/2164_fw.mp4	0.0	102.80608320236206	1.0085604190826416
9	80.86196565628052	movie	1		289	7.0	2.5	/experiments/Knapen_AOT/AOT_stimuli/rescaled_final/2164_fw.mp4	0.0	103.8146436214447	2.4920225143432617
9	81.23571181297302	pulse	1	t		7.0	2.5	/experiments/Knapen_AOT/AOT_stimuli/rescaled_final/2164_fw.mp4	0.0	104.1883897781372	
9	82.82939076423645	pulse	1	t		7.0	2.5	/experiments/Knapen_AOT/AOT_stimuli/rescaled_final/2164_fw.mp4	0.0	105.78206872940063	
9	83.35398817062378	fix_post	2		12	7.0	2.5	/experiments/Knapen_AOT/AOT_stimuli/rescaled_final/2164_fw.mp4	0.0	106.30666613578796	0.09995627403259277
10	83.45394444465637	fix_pre	0		118	8.0	2.5	/experiments/Knapen_AOT/AOT_stimuli/rescaled_final/0042_fw.mp4	0.0	106.40662240982056	0.9918708801269531
10	84.42960214614868	pulse	0	t		8.0	2.5	/experiments/Knapen_AOT/AOT_stimuli/rescaled_final/0042_fw.mp4	0.0	107.38228011131287	
10	84.44581532478333	movie	1		287	8.0	2.5	/experiments/Knapen_AOT/AOT_stimuli/rescaled_final/0042_fw.mp4	0.0	107.39849328994751	2.50032901763916
10	86.02962279319763	pulse	1	t		8.0	2.5	/experiments/Knapen_AOT/AOT_stimuli/rescaled_final/0042_fw.mp4	0.0	108.98230075836182	
10	86.94614434242249	fix_post	2		12	8.0	2.5	/experiments/Knapen_AOT/AOT_stimuli/rescaled_final/0042_fw.mp4	0.0	109.89882230758667	0.10001516342163086
11	87.04615950584412	fix_pre	0		120	9.0	2.5	/experiments/Knapen_AOT/AOT_stimuli/rescaled_final/1509_fw.mp4	0.0	109.9988374710083	1.0085535049438477
11	87.62972497940063	pulse	0	t		9.0	2.5	/experiments/Knapen_AOT/AOT_stimuli/rescaled_final/1509_fw.mp4	0.0	110.58240294456482	
11	88.05471301078796	movie	1		293	9.0	2.5	/experiments/Knapen_AOT/AOT_stimuli/rescaled_final/1509_fw.mp4	0.0	111.00739097595215	2.491969347000122
11	89.23006749153137	pulse	1	t		9.0	2.5	/experiments/Knapen_AOT/AOT_stimuli/rescaled_final/1509_fw.mp4	0.0	112.18274545669556	
11	90.54668235778809	fix_post	2		12	9.0	2.5	/experiments/Knapen_AOT/AOT_stimuli/rescaled_final/1509_fw.mp4	0.0	113.49936032295227	0.10003018379211426
12	90.6467125415802	fix_pre	0		120	10.0	2.5	/experiments/Knapen_AOT/AOT_stimuli/rescaled_final/0398_rv.mp4	0.0	113.59939050674438	1.00852632522583
12	90.83027243614197	pulse	0	t		10.0	2.5	/experiments/Knapen_AOT/AOT_stimuli/rescaled_final/0398_rv.mp4	0.0	113.78295040130615	
12	91.65523886680603	movie	1		287	10.0	2.5	/experiments/Knapen_AOT/AOT_stimuli/rescaled_final/0398_rv.mp4	0.0	114.60791683197021	2.4921627044677734
12	92.43056845664978	pulse	1	t		10.0	2.5	/experiments/Knapen_AOT/AOT_stimuli/rescaled_final/0398_rv.mp4	0.0	115.38324642181396	
12	94.03075051307678	pulse	1	t		10.0	2.5	/experiments/Knapen_AOT/AOT_stimuli/rescaled_final/0398_rv.mp4	0.0	116.98342847824097	
12	94.1474015712738	fix_post	2		12	10.0	2.5	/experiments/Knapen_AOT/AOT_stimuli/rescaled_final/0398_rv.mp4	0.0	117.10007953643799	0.09989309310913086
13	94.24729466438293	fix_pre	0		120	11.0	2.5	/experiments/Knapen_AOT/AOT_stimuli/rescaled_final/1039_rv.mp4	0.0	117.19997262954712	1.0084619522094727
13	95.25575661659241	movie	1		279	11.0	2.5	/experiments/Knapen_AOT/AOT_stimuli/rescaled_final/1039_rv.mp4	0.0	118.20843458175659	2.492058277130127
13	95.63100814819336	pulse	1	t		11.0	2.5	/experiments/Knapen_AOT/AOT_stimuli/rescaled_final/1039_rv.mp4	0.0	118.58368611335754	
13	97.23122024536133	pulse	1	t		11.0	2.5	/experiments/Knapen_AOT/AOT_stimuli/rescaled_final/1039_rv.mp4	0.0	120.18389821052551	
13	97.74781489372253	fix_post	2		12	11.0	2.5	/experiments/Knapen_AOT/AOT_stimuli/rescaled_final/1039_rv.mp4	0.0	120.70049285888672	0.09996628761291504
14	97.84778118133545	fix_pre	0		119	12.0	2.5	/experiments/Knapen_AOT/AOT_stimuli/rescaled_final/0712_fw.mp4	0.0	120.80045914649963	1.000182867050171
14	98.83146476745605	pulse	0	t		12.0	2.5	/experiments/Knapen_AOT/AOT_stimuli/rescaled_final/0712_fw.mp4	0.0	121.78414273262024	
14	98.84796404838562	movie	1		294	12.0	2.5	/experiments/Knapen_AOT/AOT_stimuli/rescaled_final/0712_fw.mp4	0.0	121.8006420135498	2.5003411769866943
14	100.42999029159546	pulse	1	t		12.0	2.5	/experiments/Knapen_AOT/AOT_stimuli/rescaled_final/0712_fw.mp4	0.0	123.38266825675964	
14	101.34830522537231	fix_post	2		12	12.0	2.5	/experiments/Knapen_AOT/AOT_stimuli/rescaled_final/0712_fw.mp4	0.0	124.3009831905365	0.10003256797790527
15	101.44833779335022	fix_pre	0		120	13.0	2.5	blank	1.0	124.4010157585144	1.0001444816589355
15	102.0319766998291	pulse	0	t		13.0	2.5	blank	1.0	124.98465466499329	
15	102.44848227500916	movie	1		300	13.0	2.5	blank	1.0	125.40116024017334	2.5003750324249268
15	103.63215970993042	pulse	1	t		13.0	2.5	blank	1.0	126.5848376750946	
15	104.94885730743408	fix_post	2		12	13.0	2.5	blank	1.0	127.90153527259827	0.10005760192871094
16	105.0489149093628	fix_pre	0		120	14.0	2.5	/experiments/Knapen_AOT/AOT_stimuli/rescaled_final/1994_fw.mp4	0.0	128.00159287452698	1.0084648132324219
16	105.23240613937378	pulse	0	t		14.0	2.5	/experiments/Knapen_AOT/AOT_stimuli/rescaled_final/1994_fw.mp4	0.0	128.18508410453796	
16	106.05737972259521	movie	1		290	14.0	2.5	/experiments/Knapen_AOT/AOT_stimuli/rescaled_final/1994_fw.mp4	0.0	129.0100576877594	2.4920074939727783
16	106.83059763908386	pulse	1	t		14.0	2.5	/experiments/Knapen_AOT/AOT_stimuli/rescaled_final/1994_fw.mp4	0.0	129.78327560424805	
16	108.43125629425049	pulse	1	t		14.0	2.5	/experiments/Knapen_AOT/AOT_stimuli/rescaled_final/1994_fw.mp4	0.0	131.38393425941467	
16	108.549387216568	fix_post	2		12	14.0	2.5	/experiments/Knapen_AOT/AOT_stimuli/rescaled_final/1994_fw.mp4	0.0	131.50206518173218	0.10002517700195312
17	108.64941239356995	fix_pre	0		120	15.0	2.5	/experiments/Knapen_AOT/AOT_stimuli/rescaled_final/1477_fw.mp4	0.0	131.60209035873413	1.008497714996338
17	109.65791010856628	movie	1		286	15.0	2.5	/experiments/Knapen_AOT/AOT_stimuli/rescaled_final/1477_fw.mp4	0.0	132.61058807373047	2.4920217990875244
17	110.03335309028625	pulse	1	t		15.0	2.5	/experiments/Knapen_AOT/AOT_stimuli/rescaled_final/1477_fw.mp4	0.0	132.98603105545044	
17	111.6314046382904	pulse	1	t		15.0	2.5	/experiments/Knapen_AOT/AOT_stimuli/rescaled_final/1477_fw.mp4	0.0	134.5840826034546	
17	112.14993190765381	fix_post	2		12	15.0	2.5	/experiments/Knapen_AOT/AOT_stimuli/rescaled_final/1477_fw.mp4	0.0	135.102609872818	0.10001373291015625
18	112.24994564056396	fix_pre	0		119	16.0	2.5	/experiments/Knapen_AOT/AOT_stimuli/rescaled_final/0694_rv.mp4	0.0	135.20262360572815	1.000159502029419
18	113.23364686965942	pulse	0	t		16.0	2.5	/experiments/Knapen_AOT/AOT_stimuli/rescaled_final/0694_rv.mp4	0.0	136.1863248348236	
18	113.25010514259338	movie	1		286	16.0	2.5	/experiments/Knapen_AOT/AOT_stimuli/rescaled_final/0694_rv.mp4	0.0	136.20278310775757	2.5005130767822266
18	114.83236193656921	pulse	1	t		16.0	2.5	/experiments/Knapen_AOT/AOT_stimuli/rescaled_final/0694_rv.mp4	0.0	137.7850399017334	
18	115.75061821937561	fix_post	2		12	16.0	2.5	/experiments/Knapen_AOT/AOT_stimuli/rescaled_final/0694_rv.mp4	0.0	138.7032961845398	0.09988141059875488
19	115.85049962997437	fix_pre	0		120	17.0	2.5	/experiments/Knapen_AOT/AOT_stimuli/rescaled_final/1409_fw.mp4	0.0	138.80317759513855	1.0084891319274902
19	116.43412160873413	pulse	0	t		17.0	2.5	/experiments/Knapen_AOT/AOT_stimuli/rescaled_final/1409_fw.mp4	0.0	139.38679957389832	
19	116.85898876190186	movie	1		291	17.0	2.5	/experiments/Knapen_AOT/AOT_stimuli/rescaled_final/1409_fw.mp4	0.0	139.81166672706604	2.4920244216918945
19	118.03295636177063	pulse	1	t		17.0	2.5	/experiments/Knapen_AOT/AOT_stimuli/rescaled_final/1409_fw.mp4	0.0	140.98563432693481	
19	119.35101318359375	fix_post	2		12	17.0	2.5	/experiments/Knapen_AOT/AOT_stimuli/rescaled_final/1409_fw.mp4	0.0	142.30369114875793	0.10002732276916504
20	119.45104050636292	fix_pre	0		120	18.0	2.5	/experiments/Knapen_AOT/AOT_stimuli/rescaled_final/0586_rv.mp4	0.0	142.4037184715271	1.008481502532959
20	119.63463735580444	pulse	0	t		18.0	2.5	/experiments/Knapen_AOT/AOT_stimuli/rescaled_final/0586_rv.mp4	0.0	142.58731532096863	
20	120.45952200889587	movie	1		287	18.0	2.5	/experiments/Knapen_AOT/AOT_stimuli/rescaled_final/0586_rv.mp4	0.0	143.41219997406006	2.4920668601989746
20	121.2327287197113	pulse	1	t		18.0	2.5	/experiments/Knapen_AOT/AOT_stimuli/rescaled_final/0586_rv.mp4	0.0	144.1854066848755	
20	122.83295202255249	pulse	1	t		18.0	2.5	/experiments/Knapen_AOT/AOT_stimuli/rescaled_final/0586_rv.mp4	0.0	145.78562998771667	
20	122.95158886909485	fix_post	2		12	18.0	2.5	/experiments/Knapen_AOT/AOT_stimuli/rescaled_final/0586_rv.mp4	0.0	145.90426683425903	0.10000419616699219
21	123.05159306526184	fix_pre	0		120	19.0	2.5	/experiments/Knapen_AOT/AOT_stimuli/rescaled_final/0713_fw.mp4	0.0	146.00427103042603	1.0084984302520752
21	124.06009149551392	movie	1		293	19.0	2.5	/experiments/Knapen_AOT/AOT_stimuli/rescaled_final/0713_fw.mp4	0.0	147.0127694606781	2.492230176925659
21	124.4335241317749	pulse	1	t		19.0	2.5	/experiments/Knapen_AOT/AOT_stimuli/rescaled_final/0713_fw.mp4	0.0	147.3862020969391	
21	126.03344655036926	pulse	1	t		19.0	2.5	/experiments/Knapen_AOT/AOT_stimuli/rescaled_final/0713_fw.mp4	0.0	148.98612451553345	
21	126.55232167243958	fix_post	2		12	19.0	2.5	/experiments/Knapen_AOT/AOT_stimuli/rescaled_final/0713_fw.mp4	0.0	149.50499963760376	0.09979438781738281
22	126.65211606025696	fix_pre	0		119	20.0	2.5	/experiments/Knapen_AOT/AOT_stimuli/rescaled_final/1664_rv.mp4	0.0	149.60479402542114	1.0002038478851318
22	127.63590359687805	pulse	0	t		20.0	2.5	/experiments/Knapen_AOT/AOT_stimuli/rescaled_final/1664_rv.mp4	0.0	150.58858156204224	
22	127.65231990814209	movie	1		293	20.0	2.5	/experiments/Knapen_AOT/AOT_stimuli/rescaled_final/1664_rv.mp4	0.0	150.60499787330627	2.5003292560577393
22	129.23734951019287	pulse	1	t		20.0	2.5	/experiments/Knapen_AOT/AOT_stimuli/rescaled_final/1664_rv.mp4	0.0	152.19002747535706	
22	130.15264916419983	fix_post	2		12	20.0	2.5	/experiments/Knapen_AOT/AOT_stimuli/rescaled_final/1664_rv.mp4	0.0	153.105327129364	0.10003232955932617
23	130.25268149375916	fix_pre	0		120	21.0	2.5	blank	1.0	153.20535945892334	1.000131607055664
23	130.83626294136047	pulse	0	t		21.0	2.5	blank	1.0	153.78894090652466	
23	131.25281310081482	movie	1		300	21.0	2.5	blank	1.0	154.205491065979	2.5003671646118164
23	132.43655729293823	pulse	1	t		21.0	2.5	blank	1.0	155.38923525810242	
23	133.75318026542664	fix_post	2		12	21.0	2.5	blank	1.0	156.70585823059082	0.10002374649047852
24	133.85320401191711	fix_pre	0		120	22.0	2.5	/experiments/Knapen_AOT/AOT_stimuli/rescaled_final/0615_fw.mp4	0.0	156.8058819770813	1.0085124969482422
24	134.03683352470398	pulse	0	t		22.0	2.5	/experiments/Knapen_AOT/AOT_stimuli/rescaled_final/0615_fw.mp4	0.0	156.98951148986816	
24	134.86171650886536	movie	1		293	22.0	2.5	/experiments/Knapen_AOT/AOT_stimuli/rescaled_final/0615_fw.mp4	0.0	157.81439447402954	2.492018461227417
24	135.63521265983582	pulse	1	t		22.0	2.5	/experiments/Knapen_AOT/AOT_stimuli/rescaled_final/0615_fw.mp4	0.0	158.587890625	
24	137.23512244224548	pulse	1	t		22.0	2.5	/experiments/Knapen_AOT/AOT_stimuli/rescaled_final/0615_fw.mp4	0.0	160.18780040740967	
24	137.35373497009277	fix_post	2		12	22.0	2.5	/experiments/Knapen_AOT/AOT_stimuli/rescaled_final/0615_fw.mp4	0.0	160.30641293525696	0.10004663467407227
25	137.45378160476685	fix_pre	0		120	23.0	2.5	/experiments/Knapen_AOT/AOT_stimuli/rescaled_final/0466_rv.mp4	0.0	160.40645956993103	1.0085327625274658
25	138.4623143672943	movie	1		288	23.0	2.5	/experiments/Knapen_AOT/AOT_stimuli/rescaled_final/0466_rv.mp4	0.0	161.4149923324585	2.4919557571411133
25	138.8361086845398	pulse	1	t		23.0	2.5	/experiments/Knapen_AOT/AOT_stimuli/rescaled_final/0466_rv.mp4	0.0	161.78878664970398	
25	140.43557858467102	pulse	1	t		23.0	2.5	/experiments/Knapen_AOT/AOT_stimuli/rescaled_final/0466_rv.mp4	0.0	163.3882565498352	
25	140.95427012443542	fix_post	2		12	23.0	2.5	/experiments/Knapen_AOT/AOT_stimuli/rescaled_final/0466_rv.mp4	0.0	163.9069480895996	0.1000521183013916
26	141.05432224273682	fix_pre	0		118	24.0	2.5	/experiments/Knapen_AOT/AOT_stimuli/rescaled_final/2142_fw.mp4	0.0	164.007000207901	0.9918217658996582
26	142.02982807159424	pulse	0	t		24.0	2.5	/experiments/Knapen_AOT/AOT_stimuli/rescaled_final/2142_fw.mp4	0.0	164.98250603675842	
26	142.04614400863647	movie	1		286	24.0	2.5	/experiments/Knapen_AOT/AOT_stimuli/rescaled_final/2142_fw.mp4	0.0	164.99882197380066	2.500375986099243
26	143.63012146949768	pulse	1	t		24.0	2.5	/experiments/Knapen_AOT/AOT_stimuli/rescaled_final/2142_fw.mp4	0.0	166.58279943466187	
26	144.54651999473572	fix_post	2		12	24.0	2.5	/experiments/Knapen_AOT/AOT_stimuli/rescaled_final/2142_fw.mp4	0.0	167.4991979598999	0.10002708435058594
27	144.6465470790863	fix_pre	0		120	25.0	2.5	/experiments/Knapen_AOT/AOT_stimuli/rescaled_final/1504_fw.mp4	0.0	167.5992250442505	1.008471965789795
27	145.2301685810089	pulse	0	t		25.0	2.5	/experiments/Knapen_AOT/AOT_stimuli/rescaled_final/1504_fw.mp4	0.0	168.1828465461731	
27	145.6550190448761	movie	1		296	25.0	2.5	/experiments/Knapen_AOT/AOT_stimuli/rescaled_final/1504_fw.mp4	0.0	168.60769701004028	2.4920248985290527
27	146.83081722259521	pulse	1	t		25.0	2.5	/experiments/Knapen_AOT/AOT_stimuli/rescaled_final/1504_fw.mp4	0.0	169.7834951877594	
27	148.14704394340515	fix_post	2		12	25.0	2.5	/experiments/Knapen_AOT/AOT_stimuli/rescaled_final/1504_fw.mp4	0.0	171.09972190856934	0.1000051498413086
28	148.24704909324646	fix_pre	0		120	26.0	2.5	blank	1.0	171.19972705841064	1.000154972076416
28	148.4308567047119	pulse	0	t		26.0	2.5	blank	1.0	171.3835346698761	
28	149.24720406532288	movie	1		300	26.0	2.5	blank	1.0	172.19988203048706	2.5003573894500732
28	150.0310468673706	pulse	1	t		26.0	2.5	blank	1.0	172.9837248325348	
28	151.63129472732544	pulse	1	t		26.0	2.5	blank	1.0	174.58397269248962	
28	151.74756145477295	fix_post	2		12	26.0	2.5	blank	1.0	174.70023941993713	0.10001778602600098
29	151.84757924079895	fix_pre	0		120	27.0	2.5	/experiments/Knapen_AOT/AOT_stimuli/rescaled_final/1551_rv.mp4	0.0	174.80025720596313	1.0085957050323486
29	152.8561749458313	movie	1		280	27.0	2.5	/experiments/Knapen_AOT/AOT_stimuli/rescaled_final/1551_rv.mp4	0.0	175.80885291099548	2.4919276237487793
29	153.2312319278717	pulse	1	t		27.0	2.5	/experiments/Knapen_AOT/AOT_stimuli/rescaled_final/1551_rv.mp4	0.0	176.1839098930359	
29	154.8315453529358	pulse	1	t		27.0	2.5	/experiments/Knapen_AOT/AOT_stimuli/rescaled_final/1551_rv.mp4	0.0	177.78422331809998	
29	155.34810256958008	fix_post	2		12	27.0	2.5	/experiments/Knapen_AOT/AOT_stimuli/rescaled_final/1551_rv.mp4	0.0	178.30078053474426	0.10002398490905762
30	155.44812655448914	fix_pre	0		119	28.0	2.5	/experiments/Knapen_AOT/AOT_stimuli/rescaled_final/0763_fw.mp4	0.0	178.40080451965332	1.0001602172851562
30	156.43174409866333	pulse	0	t		28.0	2.5	/experiments/Knapen_AOT/AOT_stimuli/rescaled_final/0763_fw.mp4	0.0	179.38442206382751	
30	156.4482867717743	movie	1		292	28.0	2.5	/experiments/Knapen_AOT/AOT_stimuli/rescaled_final/0763_fw.mp4	0.0	179.40096473693848	2.5003645420074463
30	158.03077816963196	pulse	1	t		28.0	2.5	/experiments/Knapen_AOT/AOT_stimuli/rescaled_final/0763_fw.mp4	0.0	180.98345613479614	
30	158.94865131378174	fix_post	2		12	28.0	2.5	/experiments/Knapen_AOT/AOT_stimuli/rescaled_final/0763_fw.mp4	0.0	181.90132927894592	0.10003519058227539
31	159.048686504364	fix_pre	0		120	29.0	2.5	/experiments/Knapen_AOT/AOT_stimuli/rescaled_final/2100_rv.mp4	0.0	182.0013644695282	1.0084867477416992
31	159.63221526145935	pulse	0	t		29.0	2.5	/experiments/Knapen_AOT/AOT_stimuli/rescaled_final/2100_rv.mp4	0.0	182.58489322662354	
31	160.0571732521057	movie	1		292	29.0	2.5	/experiments/Knapen_AOT/AOT_stimuli/rescaled_final/2100_rv.mp4	0.0	183.0098512172699	2.4920108318328857
31	161.23047375679016	pulse	1	t		29.0	2.5	/experiments/Knapen_AOT/AOT_stimuli/rescaled_final/2100_rv.mp4	0.0	184.18315172195435	
31	162.5491840839386	fix_post	2		12	29.0	2.5	/experiments/Knapen_AOT/AOT_stimuli/rescaled_final/2100_rv.mp4	0.0	185.50186204910278	0.10001111030578613
32	162.64919519424438	fix_pre	0		120	30.0	2.5	/experiments/Knapen_AOT/AOT_stimuli/rescaled_final/0971_fw.mp4	0.0	185.60187315940857	1.0085341930389404
32	162.8327603340149	pulse	0	t		30.0	2.5	/experiments/Knapen_AOT/AOT_stimuli/rescaled_final/0971_fw.mp4	0.0	185.78543829917908	
32	163.65772938728333	movie	1		291	30.0	2.5	/experiments/Knapen_AOT/AOT_stimuli/rescaled_final/0971_fw.mp4	0.0	186.6104073524475	2.4920077323913574
32	164.43232107162476	pulse	1	t		30.0	2.5	/experiments/Knapen_AOT/AOT_stimuli/rescaled_final/0971_fw.mp4	0.0	187.38499903678894	
32	166.0313639640808	pulse	1	t		30.0	2.5	/experiments/Knapen_AOT/AOT_stimuli/rescaled_final/0971_fw.mp4	0.0	188.984041929245	
32	166.14973711967468	fix_post	2		12	30.0	2.5	/experiments/Knapen_AOT/AOT_stimuli/rescaled_final/0971_fw.mp4	0.0	189.10241508483887	0.10007953643798828
33	166.24981665611267	fix_pre	0		120	31.0	2.5	/experiments/Knapen_AOT/AOT_stimuli/rescaled_final/0892_fw.mp4	0.0	189.20249462127686	1.00846529006958
33	167.25828194618225	movie	1		287	31.0	2.5	/experiments/Knapen_AOT/AOT_stimuli/rescaled_final/0892_fw.mp4	0.0	190.21095991134644	2.492018222808838
33	167.6318814754486	pulse	1	t		31.0	2.5	/experiments/Knapen_AOT/AOT_stimuli/rescaled_final/0892_fw.mp4	0.0	190.5845594406128	
33	169.23206329345703	pulse	1	t		31.0	2.5	/experiments/Knapen_AOT/AOT_stimuli/rescaled_final/0892_fw.mp4	0.0	192.18474125862122	
33	169.7503001689911	fix_post	2		12	31.0	2.5	/experiments/Knapen_AOT/AOT_stimuli/rescaled_final/0892_fw.mp4	0.0	192.70297813415527	0.100006103515625
34	169.8503062725067	fix_pre	0		119	32.0	2.5	/experiments/Knapen_AOT/AOT_stimuli/rescaled_final/1979_rv.mp4	0.0	192.8029842376709	1.0001769065856934
34	170.83400225639343	pulse	0	t		32.0	2.5	/experiments/Knapen_AOT/AOT_stimuli/rescaled_final/1979_rv.mp4	0.0	193.78668022155762	
34	170.8504831790924	movie	1		295	32.0	2.5	/experiments/Knapen_AOT/AOT_stimuli/rescaled_final/1979_rv.mp4	0.0	193.8031611442566	2.500430107116699
34	172.43260216712952	pulse	1	t		32.0	2.5	/experiments/Knapen_AOT/AOT_stimuli/rescaled_final/1979_rv.mp4	0.0	195.3852801322937	
34	173.3509132862091	fix_post	2		12	32.0	2.5	/experiments/Knapen_AOT/AOT_stimuli/rescaled_final/1979_rv.mp4	0.0	196.3035912513733	0.10000991821289062
35	173.450923204422	fix_pre	0		120	33.0	2.5	blank	1.0	196.40360116958618	1.0000584125518799
35	174.03440117835999	pulse	0	t		33.0	2.5	blank	1.0	196.98707914352417	
35	174.45098161697388	movie	1		300	33.0	2.5	blank	1.0	197.40365958213806	2.500372886657715
35	175.63488936424255	pulse	1	t		33.0	2.5	blank	1.0	198.58756732940674	
35	176.9513545036316	fix_post	2		12	33.0	2.5	blank	1.0	199.90403246879578	0.10005402565002441
36	177.05140852928162	fix_pre	0		120	34.0	2.5	/experiments/Knapen_AOT/AOT_stimuli/rescaled_final/0061_fw.mp4	0.0	200.0040864944458	1.0084667205810547
36	177.23486423492432	pulse	0	t		34.0	2.5	/experiments/Knapen_AOT/AOT_stimuli/rescaled_final/0061_fw.mp4	0.0	200.1875422000885	
36	178.05987524986267	movie	1		286	34.0	2.5	/experiments/Knapen_AOT/AOT_stimuli/rescaled_final/0061_fw.mp4	0.0	201.01255321502686	2.4920122623443604
36	178.8330466747284	pulse	1	t		34.0	2.5	/experiments/Knapen_AOT/AOT_stimuli/rescaled_final/0061_fw.mp4	0.0	201.78572463989258	
36	180.4334967136383	pulse	1	t		34.0	2.5	/experiments/Knapen_AOT/AOT_stimuli/rescaled_final/0061_fw.mp4	0.0	203.3861746788025	
36	180.55188751220703	fix_post	2		12	34.0	2.5	/experiments/Knapen_AOT/AOT_stimuli/rescaled_final/0061_fw.mp4	0.0	203.50456547737122	0.10002708435058594
37	180.65191459655762	fix_pre	0		120	35.0	2.5	/experiments/Knapen_AOT/AOT_stimuli/rescaled_final/1270_rv.mp4	0.0	203.6045925617218	1.0084655284881592
37	181.66038012504578	movie	1		285	35.0	2.5	/experiments/Knapen_AOT/AOT_stimuli/rescaled_final/1270_rv.mp4	0.0	204.61305809020996	2.4920809268951416
37	182.03415393829346	pulse	1	t		35.0	2.5	/experiments/Knapen_AOT/AOT_stimuli/rescaled_final/1270_rv.mp4	0.0	204.98683190345764	
37	183.63382506370544	pulse	1	t		35.0	2.5	/experiments/Knapen_AOT/AOT_stimuli/rescaled_final/1270_rv.mp4	0.0	206.58650302886963	
37	184.15246105194092	fix_post	2		12	35.0	2.5	/experiments/Knapen_AOT/AOT_stimuli/rescaled_final/1270_rv.mp4	0.0	207.1051390171051	0.10002923011779785
38	184.25249028205872	fix_pre	0		119	36.0	2.5	/experiments/Knapen_AOT/AOT_stimuli/rescaled_final/1874_fw.mp4	0.0	207.2051682472229	1.000114917755127
38	185.23607635498047	pulse	0	t		36.0	2.5	/experiments/Knapen_AOT/AOT_stimuli/rescaled_final/1874_fw.mp4	0.0	208.18875432014465	
38	185.25260519981384	movie	1		284	36.0	2.5	/experiments/Knapen_AOT/AOT_stimuli/rescaled_final/1874_fw.mp4	0.0	208.20528316497803	2.5003693103790283
38	186.8346827030182	pulse	1	t		36.0	2.5	/experiments/Knapen_AOT/AOT_stimuli/rescaled_final/1874_fw.mp4	0.0	209.78736066818237	
38	187.75297451019287	fix_post	2		12	36.0	2.5	/experiments/Knapen_AOT/AOT_stimuli/rescaled_final/1874_fw.mp4	0.0	210.70565247535706	0.10003280639648438
39	187.85300731658936	fix_pre	0		120	37.0	2.5	/experiments/Knapen_AOT/AOT_stimuli/rescaled_final/1554_fw.mp4	0.0	210.80568528175354	1.0085439682006836
39	188.43656063079834	pulse	0	t		37.0	2.5	/experiments/Knapen_AOT/AOT_stimuli/rescaled_final/1554_fw.mp4	0.0	211.38923859596252	
39	188.86155128479004	movie	1		287	37.0	2.5	/experiments/Knapen_AOT/AOT_stimuli/rescaled_final/1554_fw.mp4	0.0	211.81422924995422	2.4920318126678467
39	190.03499388694763	pulse	1	t		37.0	2.5	/experiments/Knapen_AOT/AOT_stimuli/rescaled_final/1554_fw.mp4	0.0	212.98767185211182	
39	191.35358309745789	fix_post	2		12	37.0	2.5	/experiments/Knapen_AOT/AOT_stimuli/rescaled_final/1554_fw.mp4	0.0	214.30626106262207	0.09996938705444336
40	191.45355248451233	fix_pre	0		120	38.0	2.5	/experiments/Knapen_AOT/AOT_stimuli/rescaled_final/0198_fw.mp4	0.0	214.4062304496765	1.0085058212280273
40	191.63093829154968	pulse	0	t		38.0	2.5	/experiments/Knapen_AOT/AOT_stimuli/rescaled_final/0198_fw.mp4	0.0	214.58361625671387	
40	192.46205830574036	movie	1		289	38.0	2.5	/experiments/Knapen_AOT/AOT_stimuli/rescaled_final/0198_fw.mp4	0.0	215.41473627090454	2.492006301879883
40	193.2355945110321	pulse	1	t		38.0	2.5	/experiments/Knapen_AOT/AOT_stimuli/rescaled_final/0198_fw.mp4	0.0	216.1882724761963	
40	194.83561944961548	pulse	1	t		38.0	2.5	/experiments/Knapen_AOT/AOT_stimuli/rescaled_final/0198_fw.mp4	0.0	217.78829741477966	
40	194.95406460762024	fix_post	2		12	38.0	2.5	/experiments/Knapen_AOT/AOT_stimuli/rescaled_final/0198_fw.mp4	0.0	217.90674257278442	0.10000252723693848
41	195.05406713485718	fix_pre	0		120	39.0	2.5	/experiments/Knapen_AOT/AOT_stimuli/rescaled_final/2041_rv.mp4	0.0	218.00674510002136	1.0085434913635254
41	196.0626106262207	movie	1		282	39.0	2.5	/experiments/Knapen_AOT/AOT_stimuli/rescaled_final/2041_rv.mp4	0.0	219.0152885913849	2.4920411109924316
41	196.43716287612915	pulse	1	t		39.0	2.5	/experiments/Knapen_AOT/AOT_stimuli/rescaled_final/2041_rv.mp4	0.0	219.38984084129333	
41	198.03587555885315	pulse	1	t		39.0	2.5	/experiments/Knapen_AOT/AOT_stimuli/rescaled_final/2041_rv.mp4	0.0	220.98855352401733	
41	198.55465173721313	fix_post	2		12	39.0	2.5	/experiments/Knapen_AOT/AOT_stimuli/rescaled_final/2041_rv.mp4	0.0	221.50732970237732	0.09998321533203125
42	198.65463495254517	fix_pre	0		118	40.0	2.5	blank	1.0	221.60731291770935	0.9834682941436768
42	199.6302366256714	pulse	0	t		40.0	2.5	blank	1.0	222.58291459083557	
42	199.63810324668884	movie	1		301	40.0	2.5	blank	1.0	222.59078121185303	2.508715867996216
42	201.23024106025696	pulse	1	t		40.0	2.5	blank	1.0	224.18291902542114	
42	202.14681911468506	fix_post	2		12	40.0	2.5	blank	1.0	225.09949707984924	0.10009479522705078
43	202.2469139099121	fix_pre	0		120	41.0	2.5	/experiments/Knapen_AOT/AOT_stimuli/rescaled_final/0245_rv.mp4	0.0	225.1995918750763	1.0084457397460938
43	202.8304033279419	pulse	0	t		41.0	2.5	/experiments/Knapen_AOT/AOT_stimuli/rescaled_final/0245_rv.mp4	0.0	225.78308129310608	
43	203.2553596496582	movie	1		294	41.0	2.5	/experiments/Knapen_AOT/AOT_stimuli/rescaled_final/0245_rv.mp4	0.0	226.2080376148224	2.4920129776000977
43	204.4307737350464	pulse	1	t		41.0	2.5	/experiments/Knapen_AOT/AOT_stimuli/rescaled_final/0245_rv.mp4	0.0	227.38345170021057	
43	205.7473726272583	fix_post	2		12	41.0	2.5	/experiments/Knapen_AOT/AOT_stimuli/rescaled_final/0245_rv.mp4	0.0	228.70005059242249	0.10003900527954102
44	205.84741163253784	fix_pre	0		120	42.0	2.5	/experiments/Knapen_AOT/AOT_stimuli/rescaled_final/0129_rv.mp4	0.0	228.80008959770203	1.0085151195526123
44	206.0310182571411	pulse	0	t		42.0	2.5	/experiments/Knapen_AOT/AOT_stimuli/rescaled_final/0129_rv.mp4	0.0	228.9836962223053	
44	206.85592675209045	movie	1		291	42.0	2.5	/experiments/Knapen_AOT/AOT_stimuli/rescaled_final/0129_rv.mp4	0.0	229.80860471725464	2.4919652938842773
44	207.63113474845886	pulse	1	t		42.0	2.5	/experiments/Knapen_AOT/AOT_stimuli/rescaled_final/0129_rv.mp4	0.0	230.58381271362305	
44	209.23136043548584	pulse	1	t		42.0	2.5	/experiments/Knapen_AOT/AOT_stimuli/rescaled_final/0129_rv.mp4	0.0	232.18403840065002	
44	209.34789204597473	fix_post	2		12	42.0	2.5	/experiments/Knapen_AOT/AOT_stimuli/rescaled_final/0129_rv.mp4	0.0	232.30057001113892	0.1000525951385498
45	209.44794464111328	fix_pre	0		120	43.0	2.5	/experiments/Knapen_AOT/AOT_stimuli/rescaled_final/1691_fw.mp4	0.0	232.40062260627747	1.0085523128509521
45	210.45649695396423	movie	1		286	43.0	2.5	/experiments/Knapen_AOT/AOT_stimuli/rescaled_final/1691_fw.mp4	0.0	233.40917491912842	2.4919471740722656
45	210.83018708229065	pulse	1	t		43.0	2.5	/experiments/Knapen_AOT/AOT_stimuli/rescaled_final/1691_fw.mp4	0.0	233.78286504745483	
45	212.4318335056305	pulse	1	t		43.0	2.5	/experiments/Knapen_AOT/AOT_stimuli/rescaled_final/1691_fw.mp4	0.0	235.38451147079468	
45	212.9484441280365	fix_post	2		12	43.0	2.5	/experiments/Knapen_AOT/AOT_stimuli/rescaled_final/1691_fw.mp4	0.0	235.90112209320068	0.10001564025878906
46	213.0484597682953	fix_pre	0		119	44.0	2.5	/experiments/Knapen_AOT/AOT_stimuli/rescaled_final/0441_rv.mp4	0.0	236.00113773345947	1.0001790523529053
46	214.0320975780487	pulse	0	t		44.0	2.5	/experiments/Knapen_AOT/AOT_stimuli/rescaled_final/0441_rv.mp4	0.0	236.9847755432129	
46	214.0486388206482	movie	1		264	44.0	2.5	/experiments/Knapen_AOT/AOT_stimuli/rescaled_final/0441_rv.mp4	0.0	237.00131678581238	2.5003886222839355
46	215.63089108467102	pulse	1	t		44.0	2.5	/experiments/Knapen_AOT/AOT_stimuli/rescaled_final/0441_rv.mp4	0.0	238.5835690498352	
46	216.54902744293213	fix_post	2		12	44.0	2.5	/experiments/Knapen_AOT/AOT_stimuli/rescaled_final/0441_rv.mp4	0.0	239.5017054080963	0.09998822212219238
47	216.64901566505432	fix_pre	0		120	45.0	2.5	/experiments/Knapen_AOT/AOT_stimuli/rescaled_final/0806_rv.mp4	0.0	239.6016936302185	1.0085532665252686
47	217.23268961906433	pulse	0	t		45.0	2.5	/experiments/Knapen_AOT/AOT_stimuli/rescaled_final/0806_rv.mp4	0.0	240.18536758422852	
47	217.6575689315796	movie	1		291	45.0	2.5	/experiments/Knapen_AOT/AOT_stimuli/rescaled_final/0806_rv.mp4	0.0	240.61024689674377	2.5003154277801514
47	218.83110356330872	pulse	1	t		45.0	2.5	/experiments/Knapen_AOT/AOT_stimuli/rescaled_final/0806_rv.mp4	0.0	241.7837815284729	
47	220.15788435935974	fix_post	2		11	45.0	2.5	/experiments/Knapen_AOT/AOT_stimuli/rescaled_final/0806_rv.mp4	0.0	243.11056232452393	0.0917820930480957
48	220.24966645240784	fix_pre	0		120	46.0	2.5	/experiments/Knapen_AOT/AOT_stimuli/rescaled_final/2100_rv.mp4	0.0	243.20234441757202	1.0083863735198975
48	220.43347120285034	pulse	0	t		46.0	2.5	/experiments/Knapen_AOT/AOT_stimuli/rescaled_final/2100_rv.mp4	0.0	243.38614916801453	
48	221.25805282592773	movie	1		294	46.0	2.5	/experiments/Knapen_AOT/AOT_stimuli/rescaled_final/2100_rv.mp4	0.0	244.21073079109192	2.4920153617858887
48	222.03151512145996	pulse	1	t		46.0	2.5	/experiments/Knapen_AOT/AOT_stimuli/rescaled_final/2100_rv.mp4	0.0	244.98419308662415	
48	223.63151836395264	pulse	1	t		46.0	2.5	/experiments/Knapen_AOT/AOT_stimuli/rescaled_final/2100_rv.mp4	0.0	246.58419632911682	
48	223.75006818771362	fix_post	2		12	46.0	2.5	/experiments/Knapen_AOT/AOT_stimuli/rescaled_final/2100_rv.mp4	0.0	246.7027461528778	0.10003328323364258
49	223.85010147094727	fix_pre	0		120	47.0	2.5	/experiments/Knapen_AOT/AOT_stimuli/rescaled_final/0157_fw.mp4	0.0	246.80277943611145	1.0085029602050781
49	224.85860443115234	movie	1		284	47.0	2.5	/experiments/Knapen_AOT/AOT_stimuli/rescaled_final/0157_fw.mp4	0.0	247.81128239631653	2.4920129776000977
49	225.2324526309967	pulse	1	t		47.0	2.5	/experiments/Knapen_AOT/AOT_stimuli/rescaled_final/0157_fw.mp4	0.0	248.1851305961609	
49	226.83230566978455	pulse	1	t		47.0	2.5	/experiments/Knapen_AOT/AOT_stimuli/rescaled_final/0157_fw.mp4	0.0	249.78498363494873	
49	227.35061740875244	fix_post	2		12	47.0	2.5	/experiments/Knapen_AOT/AOT_stimuli/rescaled_final/0157_fw.mp4	0.0	250.30329537391663	0.10001516342163086
50	227.45063257217407	fix_pre	0		119	48.0	2.5	blank	1.0	250.40331053733826	0.9917962551116943
50	228.43440008163452	pulse	0	t		48.0	2.5	blank	1.0	251.3870780467987	
50	228.44242882728577	movie	1		301	48.0	2.5	blank	1.0	251.39510679244995	2.5087339878082275
50	230.0345275402069	pulse	1	t		48.0	2.5	blank	1.0	252.9872055053711	
50	230.951162815094	fix_post	2		12	48.0	2.5	blank	1.0	253.90384078025818	0.10025143623352051
51	231.05141425132751	fix_pre	0		120	49.0	2.5	/experiments/Knapen_AOT/AOT_stimuli/rescaled_final/0957_fw.mp4	0.0	254.0040922164917	1.0083043575286865
51	231.63487911224365	pulse	0	t		49.0	2.5	/experiments/Knapen_AOT/AOT_stimuli/rescaled_final/0957_fw.mp4	0.0	254.58755707740784	
51	232.0597186088562	movie	1		293	49.0	2.5	/experiments/Knapen_AOT/AOT_stimuli/rescaled_final/0957_fw.mp4	0.0	255.01239657402039	2.492000102996826
51	233.23317909240723	pulse	1	t		49.0	2.5	/experiments/Knapen_AOT/AOT_stimuli/rescaled_final/0957_fw.mp4	0.0	256.1858570575714	
51	234.55171871185303	fix_post	2		12	49.0	2.5	/experiments/Knapen_AOT/AOT_stimuli/rescaled_final/0957_fw.mp4	0.0	257.5043966770172	0.1000361442565918
52	234.65175485610962	fix_pre	0		120	50.0	2.5	/experiments/Knapen_AOT/AOT_stimuli/rescaled_final/1874_rv.mp4	0.0	257.6044328212738	1.008467197418213
52	234.83532452583313	pulse	0	t		50.0	2.5	/experiments/Knapen_AOT/AOT_stimuli/rescaled_final/1874_rv.mp4	0.0	257.7880024909973	
52	235.66022205352783	movie	1		287	50.0	2.5	/experiments/Knapen_AOT/AOT_stimuli/rescaled_final/1874_rv.mp4	0.0	258.612900018692	2.49204683303833
52	236.43353724479675	pulse	1	t		50.0	2.5	/experiments/Knapen_AOT/AOT_stimuli/rescaled_final/1874_rv.mp4	0.0	259.38621520996094	
52	238.03394174575806	pulse	1	t		50.0	2.5	/experiments/Knapen_AOT/AOT_stimuli/rescaled_final/1874_rv.mp4	0.0	260.98661971092224	
52	238.15226888656616	fix_post	2		12	50.0	2.5	/experiments/Knapen_AOT/AOT_stimuli/rescaled_final/1874_rv.mp4	0.0	261.10494685173035	0.09998226165771484
53	238.25225114822388	fix_pre	0		120	51.0	2.5	/experiments/Knapen_AOT/AOT_stimuli/rescaled_final/0021_rv.mp4	0.0	261.20492911338806	1.0085549354553223
53	239.2608060836792	movie	1		286	51.0	2.5	/experiments/Knapen_AOT/AOT_stimuli/rescaled_final/0021_rv.mp4	0.0	262.2134840488434	2.4919869899749756
53	239.63459634780884	pulse	1	t		51.0	2.5	/experiments/Knapen_AOT/AOT_stimuli/rescaled_final/0021_rv.mp4	0.0	262.587274312973	
53	241.23427391052246	pulse	1	t		51.0	2.5	/experiments/Knapen_AOT/AOT_stimuli/rescaled_final/0021_rv.mp4	0.0	264.18695187568665	
53	241.75279307365417	fix_post	2		12	51.0	2.5	/experiments/Knapen_AOT/AOT_stimuli/rescaled_final/0021_rv.mp4	0.0	264.70547103881836	0.10001254081726074
54	241.85280561447144	fix_pre	0		119	52.0	2.5	/experiments/Knapen_AOT/AOT_stimuli/rescaled_final/0129_fw.mp4	0.0	264.8054835796356	1.0001988410949707
54	242.8300621509552	pulse	0	t		52.0	2.5	/experiments/Knapen_AOT/AOT_stimuli/rescaled_final/0129_fw.mp4	0.0	265.7827401161194	
54	242.8530044555664	movie	1		294	52.0	2.5	/experiments/Knapen_AOT/AOT_stimuli/rescaled_final/0129_fw.mp4	0.0	265.8056824207306	2.5003180503845215
54	244.4350700378418	pulse	1	t		52.0	2.5	/experiments/Knapen_AOT/AOT_stimuli/rescaled_final/0129_fw.mp4	0.0	267.387748003006	
54	245.35332250595093	fix_post	2		12	52.0	2.5	/experiments/Knapen_AOT/AOT_stimuli/rescaled_final/0129_fw.mp4	0.0	268.3060004711151	0.10003399848937988
55	245.4533565044403	fix_pre	0		120	53.0	2.5	/experiments/Knapen_AOT/AOT_stimuli/rescaled_final/1726_fw.mp4	0.0	268.4060344696045	1.0084967613220215
55	246.03700709342957	pulse	0	t		53.0	2.5	/experiments/Knapen_AOT/AOT_stimuli/rescaled_final/1726_fw.mp4	0.0	268.98968505859375	
55	246.46185326576233	movie	1		287	53.0	2.5	/experiments/Knapen_AOT/AOT_stimuli/rescaled_final/1726_fw.mp4	0.0	269.4145312309265	2.492018222808838
55	247.63535022735596	pulse	1	t		53.0	2.5	/experiments/Knapen_AOT/AOT_stimuli/rescaled_final/1726_fw.mp4	0.0	270.58802819252014	
55	248.95387148857117	fix_post	2		12	53.0	2.5	/experiments/Knapen_AOT/AOT_stimuli/rescaled_final/1726_fw.mp4	0.0	271.90654945373535	0.10004591941833496
56	249.0539174079895	fix_pre	0		120	54.0	2.5	/experiments/Knapen_AOT/AOT_stimuli/rescaled_final/1862_fw.mp4	0.0	272.0065953731537	1.0084829330444336
56	249.23028135299683	pulse	0	t		54.0	2.5	/experiments/Knapen_AOT/AOT_stimuli/rescaled_final/1862_fw.mp4	0.0	272.182959318161	
56	250.06240034103394	movie	1		284	54.0	2.5	/experiments/Knapen_AOT/AOT_stimuli/rescaled_final/1862_fw.mp4	0.0	273.0150783061981	2.4919960498809814
56	250.82969164848328	pulse	1	t		54.0	2.5	/experiments/Knapen_AOT/AOT_stimuli/rescaled_final/1862_fw.mp4	0.0	273.78236961364746	
56	252.4296748638153	pulse	1	t		54.0	2.5	/experiments/Knapen_AOT/AOT_stimuli/rescaled_final/1862_fw.mp4	0.0	275.3823528289795	
56	252.55439639091492	fix_post	2		12	54.0	2.5	/experiments/Knapen_AOT/AOT_stimuli/rescaled_final/1862_fw.mp4	0.0	275.5070743560791	0.10002708435058594
57	252.6544234752655	fix_pre	0		120	55.0	2.5	blank	1.0	275.6071014404297	1.0001490116119385
57	253.65457248687744	movie	1		300	55.0	2.5	blank	1.0	276.6072504520416	2.500396966934204
57	254.02984166145325	pulse	1	t		55.0	2.5	blank	1.0	276.98251962661743	
57	255.6300618648529	pulse	1	t		55.0	2.5	blank	1.0	278.5827398300171	
57	256.15496945381165	fix_post	2		12	55.0	2.5	blank	1.0	279.10764741897583	0.10001349449157715
58	256.2549829483032	fix_pre	0		118	56.0	2.5	/experiments/Knapen_AOT/AOT_stimuli/rescaled_final/2100_fw.mp4	0.0	279.2076609134674	1.0002319812774658
58	257.23035883903503	pulse	0	t		56.0	2.5	/experiments/Knapen_AOT/AOT_stimuli/rescaled_final/2100_fw.mp4	0.0	280.1830368041992	
58	257.2552149295807	movie	1		286	56.0	2.5	/experiments/Knapen_AOT/AOT_stimuli/rescaled_final/2100_fw.mp4	0.0	280.2078928947449	2.4919376373291016
58	258.83072328567505	pulse	1	t		56.0	2.5	/experiments/Knapen_AOT/AOT_stimuli/rescaled_final/2100_fw.mp4	0.0	281.78340125083923	
58	259.7471525669098	fix_post	2		12	56.0	2.5	/experiments/Knapen_AOT/AOT_stimuli/rescaled_final/2100_fw.mp4	0.0	282.699830532074	0.10005474090576172
59	259.84720730781555	fix_pre	0		120	57.0	2.5	/experiments/Knapen_AOT/AOT_stimuli/rescaled_final/1902_fw.mp4	0.0	282.79988527297974	1.0085415840148926
59	260.43087100982666	pulse	0	t		57.0	2.5	/experiments/Knapen_AOT/AOT_stimuli/rescaled_final/1902_fw.mp4	0.0	283.38354897499084	
59	260.85574889183044	movie	1		287	57.0	2.5	/experiments/Knapen_AOT/AOT_stimuli/rescaled_final/1902_fw.mp4	0.0	283.80842685699463	2.4919545650482178
59	262.031170129776	pulse	1	t		57.0	2.5	/experiments/Knapen_AOT/AOT_stimuli/rescaled_final/1902_fw.mp4	0.0	284.9838480949402	
59	263.34770345687866	fix_post	2		12	57.0	2.5	/experiments/Knapen_AOT/AOT_stimuli/rescaled_final/1902_fw.mp4	0.0	286.30038142204285	0.10002279281616211
60	263.4477262496948	fix_pre	0		120	58.0	2.5	/experiments/Knapen_AOT/AOT_stimuli/rescaled_final/0113_fw.mp4	0.0	286.400404214859	1.008507251739502
60	263.6313011646271	pulse	0	t		58.0	2.5	/experiments/Knapen_AOT/AOT_stimuli/rescaled_final/0113_fw.mp4	0.0	286.58397912979126	
60	264.4562335014343	movie	1		286	58.0	2.5	/experiments/Knapen_AOT/AOT_stimuli/rescaled_final/0113_fw.mp4	0.0	287.4089114665985	2.4920473098754883
60	265.2315237522125	pulse	1	t		58.0	2.5	/experiments/Knapen_AOT/AOT_stimuli/rescaled_final/0113_fw.mp4	0.0	288.1842017173767	
60	266.8299357891083	pulse	1	t		58.0	2.5	/experiments/Knapen_AOT/AOT_stimuli/rescaled_final/0113_fw.mp4	0.0	289.78261375427246	
60	266.9482808113098	fix_post	2		12	58.0	2.5	/experiments/Knapen_AOT/AOT_stimuli/rescaled_final/0113_fw.mp4	0.0	289.900958776474	0.09998273849487305
61	267.0482635498047	fix_pre	0		120	59.0	2.5	/experiments/Knapen_AOT/AOT_stimuli/rescaled_final/0739_fw.mp4	0.0	290.0009415149689	1.0085079669952393
61	268.0567715167999	movie	1		288	59.0	2.5	/experiments/Knapen_AOT/AOT_stimuli/rescaled_final/0739_fw.mp4	0.0	291.0094494819641	2.4920215606689453
61	268.4304542541504	pulse	1	t		59.0	2.5	/experiments/Knapen_AOT/AOT_stimuli/rescaled_final/0739_fw.mp4	0.0	291.3831322193146	
61	270.03025341033936	pulse	1	t		59.0	2.5	/experiments/Knapen_AOT/AOT_stimuli/rescaled_final/0739_fw.mp4	0.0	292.98293137550354	
61	270.5487930774689	fix_post	2		12	59.0	2.5	/experiments/Knapen_AOT/AOT_stimuli/rescaled_final/0739_fw.mp4	0.0	293.50147104263306	0.10004639625549316
62	270.64883947372437	fix_pre	0		119	60.0	2.5	/experiments/Knapen_AOT/AOT_stimuli/rescaled_final/0802_fw.mp4	0.0	293.60151743888855	1.0002870559692383
62	271.6326024532318	pulse	0	t		60.0	2.5	/experiments/Knapen_AOT/AOT_stimuli/rescaled_final/0802_fw.mp4	0.0	294.585280418396	
62	271.6491265296936	movie	1		286	60.0	2.5	/experiments/Knapen_AOT/AOT_stimuli/rescaled_final/0802_fw.mp4	0.0	294.6018044948578	2.500217914581299
62	273.2331876754761	pulse	1	t		60.0	2.5	/experiments/Knapen_AOT/AOT_stimuli/rescaled_final/0802_fw.mp4	0.0	296.18586564064026	
62	274.1493444442749	fix_post	2		12	60.0	2.5	/experiments/Knapen_AOT/AOT_stimuli/rescaled_final/0802_fw.mp4	0.0	297.1020224094391	0.10000181198120117
63	274.2493462562561	fix_pre	0		120	61.0	2.5	blank	1.0	297.2020242214203	1.0002048015594482
63	274.83301424980164	pulse	0	t		61.0	2.5	blank	1.0	297.7856922149658	
63	275.24955105781555	movie	1		300	61.0	2.5	blank	1.0	298.20222902297974	2.500328540802002
63	276.43323373794556	pulse	1	t		61.0	2.5	blank	1.0	299.38591170310974	
63	277.74987959861755	fix_post	2		12	61.0	2.5	blank	1.0	300.70255756378174	0.10001230239868164
64	277.84989190101624	fix_pre	0		120	62.0	2.5	/experiments/Knapen_AOT/AOT_stimuli/rescaled_final/0946_rv.mp4	0.0	300.8025698661804	1.0084874629974365
64	278.03344321250916	pulse	0	t		62.0	2.5	/experiments/Knapen_AOT/AOT_stimuli/rescaled_final/0946_rv.mp4	0.0	300.98612117767334	
64	278.8583793640137	movie	1		279	62.0	2.5	/experiments/Knapen_AOT/AOT_stimuli/rescaled_final/0946_rv.mp4	0.0	301.81105732917786	2.492032766342163
64	279.6321897506714	pulse	1	t		62.0	2.5	/experiments/Knapen_AOT/AOT_stimuli/rescaled_final/0946_rv.mp4	0.0	302.58486771583557	
64	281.23214054107666	pulse	1	t		62.0	2.5	/experiments/Knapen_AOT/AOT_stimuli/rescaled_final/0946_rv.mp4	0.0	304.18481850624084	
64	281.35041213035583	fix_post	2		12	62.0	2.5	/experiments/Knapen_AOT/AOT_stimuli/rescaled_final/0946_rv.mp4	0.0	304.30309009552	0.10007143020629883
65	281.45048356056213	fix_pre	0		120	63.0	2.5	/experiments/Knapen_AOT/AOT_stimuli/rescaled_final/0503_fw.mp4	0.0	304.4031615257263	1.0084359645843506
65	282.4589195251465	movie	1		284	63.0	2.5	/experiments/Knapen_AOT/AOT_stimuli/rescaled_final/0503_fw.mp4	0.0	305.41159749031067	2.4920480251312256
65	282.8334610462189	pulse	1	t		63.0	2.5	/experiments/Knapen_AOT/AOT_stimuli/rescaled_final/0503_fw.mp4	0.0	305.78613901138306	
65	284.43268489837646	pulse	1	t		63.0	2.5	/experiments/Knapen_AOT/AOT_stimuli/rescaled_final/0503_fw.mp4	0.0	307.38536286354065	
65	284.9509675502777	fix_post	2		12	63.0	2.5	/experiments/Knapen_AOT/AOT_stimuli/rescaled_final/0503_fw.mp4	0.0	307.9036455154419	0.10000085830688477
66	285.0509684085846	fix_pre	0		119	64.0	2.5	/experiments/Knapen_AOT/AOT_stimuli/rescaled_final/1169_rv.mp4	0.0	308.0036463737488	1.0001821517944336
66	286.03491044044495	pulse	0	t		64.0	2.5	/experiments/Knapen_AOT/AOT_stimuli/rescaled_final/1169_rv.mp4	0.0	308.98758840560913	
66	286.051150560379	movie	1		292	64.0	2.5	/experiments/Knapen_AOT/AOT_stimuli/rescaled_final/1169_rv.mp4	0.0	309.0038285255432	2.500345230102539
66	287.63387393951416	pulse	1	t		64.0	2.5	/experiments/Knapen_AOT/AOT_stimuli/rescaled_final/1169_rv.mp4	0.0	310.58655190467834	
66	288.55149579048157	fix_post	2		12	64.0	2.5	/experiments/Knapen_AOT/AOT_stimuli/rescaled_final/1169_rv.mp4	0.0	311.50417375564575	0.10016775131225586
67	288.6516635417938	fix_pre	0		120	65.0	2.5	/experiments/Knapen_AOT/AOT_stimuli/rescaled_final/2097_rv.mp4	0.0	311.604341506958	1.0083417892456055
67	289.23513317108154	pulse	0	t		65.0	2.5	/experiments/Knapen_AOT/AOT_stimuli/rescaled_final/2097_rv.mp4	0.0	312.1878111362457	
67	289.66000533103943	movie	1		289	65.0	2.5	/experiments/Knapen_AOT/AOT_stimuli/rescaled_final/2097_rv.mp4	0.0	312.6126832962036	2.492034435272217
67	290.8335328102112	pulse	1	t		65.0	2.5	/experiments/Knapen_AOT/AOT_stimuli/rescaled_final/2097_rv.mp4	0.0	313.78621077537537	
67	292.15203976631165	fix_post	2		12	65.0	2.5	/experiments/Knapen_AOT/AOT_stimuli/rescaled_final/2097_rv.mp4	0.0	315.10471773147583	0.10000371932983398
68	292.2520434856415	fix_pre	0		120	66.0	2.5	/experiments/Knapen_AOT/AOT_stimuli/rescaled_final/0279_fw.mp4	0.0	315.20472145080566	1.0085017681121826
68	292.4356029033661	pulse	0	t		66.0	2.5	/experiments/Knapen_AOT/AOT_stimuli/rescaled_final/0279_fw.mp4	0.0	315.3882808685303	
68	293.26054525375366	movie	1		288	66.0	2.5	/experiments/Knapen_AOT/AOT_stimuli/rescaled_final/0279_fw.mp4	0.0	316.21322321891785	2.492124319076538
68	294.0341067314148	pulse	1	t		66.0	2.5	/experiments/Knapen_AOT/AOT_stimuli/rescaled_final/0279_fw.mp4	0.0	316.986784696579	
68	295.63423681259155	pulse	1	t		66.0	2.5	/experiments/Knapen_AOT/AOT_stimuli/rescaled_final/0279_fw.mp4	0.0	318.58691477775574	
68	295.7526695728302	fix_post	2		12	66.0	2.5	/experiments/Knapen_AOT/AOT_stimuli/rescaled_final/0279_fw.mp4	0.0	318.7053475379944	0.09993433952331543
69	295.8526039123535	fix_pre	0		120	67.0	2.5	/experiments/Knapen_AOT/AOT_stimuli/rescaled_final/2142_rv.mp4	0.0	318.8052818775177	1.0084760189056396
69	296.86107993125916	movie	1		285	67.0	2.5	/experiments/Knapen_AOT/AOT_stimuli/rescaled_final/2142_rv.mp4	0.0	319.81375789642334	2.492041826248169
69	297.23494029045105	pulse	1	t		67.0	2.5	/experiments/Knapen_AOT/AOT_stimuli/rescaled_final/2142_rv.mp4	0.0	320.18761825561523	
69	298.8344147205353	pulse	1	t		67.0	2.5	/experiments/Knapen_AOT/AOT_stimuli/rescaled_final/2142_rv.mp4	0.0	321.78709268569946	
69	299.3531217575073	fix_post	2		12	67.0	2.5	/experiments/Knapen_AOT/AOT_stimuli/rescaled_final/2142_rv.mp4	0.0	322.3057997226715	0.1000816822052002
70	299.4532034397125	fix_pre	0		119	68.0	2.5	blank	1.0	322.4058814048767	0.9917223453521729
70	300.4368438720703	pulse	0	t		68.0	2.5	blank	1.0	323.3895218372345	
70	300.4449257850647	movie	1		301	68.0	2.5	blank	1.0	323.3976037502289	2.5087413787841797
70	302.0372292995453	pulse	1	t		68.0	2.5	blank	1.0	324.9899072647095	
70	302.9536671638489	fix_post	2		12	68.0	2.5	blank	1.0	325.90634512901306	0.10001134872436523
71	303.05367851257324	fix_pre	0		120	69.0	2.5	/experiments/Knapen_AOT/AOT_stimuli/rescaled_final/0749_fw.mp4	0.0	326.0063564777374	1.008559226989746
71	303.63736629486084	pulse	0	t		69.0	2.5	/experiments/Knapen_AOT/AOT_stimuli/rescaled_final/0749_fw.mp4	0.0	326.590044260025	
71	304.062237739563	movie	1		288	69.0	2.5	/experiments/Knapen_AOT/AOT_stimuli/rescaled_final/0749_fw.mp4	0.0	327.0149157047272	2.492119789123535
71	305.23636078834534	pulse	1	t		69.0	2.5	/experiments/Knapen_AOT/AOT_stimuli/rescaled_final/0749_fw.mp4	0.0	328.1890387535095	
71	306.5543575286865	fix_post	2		12	69.0	2.5	/experiments/Knapen_AOT/AOT_stimuli/rescaled_final/0749_fw.mp4	0.0	329.5070354938507	0.09982609748840332
72	306.6541836261749	fix_pre	0		120	70.0	2.5	/experiments/Knapen_AOT/AOT_stimuli/rescaled_final/0694_fw.mp4	0.0	329.6068615913391	1.008533239364624
72	306.8300471305847	pulse	0	t		70.0	2.5	/experiments/Knapen_AOT/AOT_stimuli/rescaled_final/0694_fw.mp4	0.0	329.7827250957489	
72	307.66271686553955	movie	1		285	70.0	2.5	/experiments/Knapen_AOT/AOT_stimuli/rescaled_final/0694_fw.mp4	0.0	330.61539483070374	2.492072582244873
72	308.43637704849243	pulse	1	t		70.0	2.5	/experiments/Knapen_AOT/AOT_stimuli/rescaled_final/0694_fw.mp4	0.0	331.3890550136566	
72	310.0301995277405	pulse	1	t		70.0	2.5	/experiments/Knapen_AOT/AOT_stimuli/rescaled_final/0694_fw.mp4	0.0	332.98287749290466	
72	310.1547894477844	fix_post	2		12	70.0	2.5	/experiments/Knapen_AOT/AOT_stimuli/rescaled_final/0694_fw.mp4	0.0	333.1074674129486	0.10011410713195801
73	310.2549035549164	fix_pre	0		120	71.0	2.5	/experiments/Knapen_AOT/AOT_stimuli/rescaled_final/1536_rv.mp4	0.0	333.20758152008057	1.0083677768707275
73	311.2632713317871	movie	1		278	71.0	2.5	/experiments/Knapen_AOT/AOT_stimuli/rescaled_final/1536_rv.mp4	0.0	334.2159492969513	2.492020606994629
73	311.638738155365	pulse	1	t		71.0	2.5	/experiments/Knapen_AOT/AOT_stimuli/rescaled_final/1536_rv.mp4	0.0	334.5914161205292	
73	313.23042726516724	pulse	1	t		71.0	2.5	/experiments/Knapen_AOT/AOT_stimuli/rescaled_final/1536_rv.mp4	0.0	336.1831052303314	
73	313.75529193878174	fix_post	2		12	71.0	2.5	/experiments/Knapen_AOT/AOT_stimuli/rescaled_final/1536_rv.mp4	0.0	336.7079699039459	0.10012936592102051
74	313.85542130470276	fix_pre	0		118	72.0	2.5	/experiments/Knapen_AOT/AOT_stimuli/rescaled_final/1409_fw.mp4	0.0	336.80809926986694	0.9917147159576416
74	314.83069133758545	pulse	0	t		72.0	2.5	/experiments/Knapen_AOT/AOT_stimuli/rescaled_final/1409_fw.mp4	0.0	337.78336930274963	
74	314.8471360206604	movie	1		283	72.0	2.5	/experiments/Knapen_AOT/AOT_stimuli/rescaled_final/1409_fw.mp4	0.0	337.7998139858246	2.5003843307495117
74	316.43108654022217	pulse	1	t		72.0	2.5	/experiments/Knapen_AOT/AOT_stimuli/rescaled_final/1409_fw.mp4	0.0	339.38376450538635	
74	317.3475203514099	fix_post	2		12	72.0	2.5	/experiments/Knapen_AOT/AOT_stimuli/rescaled_final/1409_fw.mp4	0.0	340.3001983165741	0.09999299049377441
75	317.4475133419037	fix_pre	0		120	73.0	2.5	/experiments/Knapen_AOT/AOT_stimuli/rescaled_final/0466_fw.mp4	0.0	340.40019130706787	1.0084874629974365
75	318.03151655197144	pulse	0	t		73.0	2.5	/experiments/Knapen_AOT/AOT_stimuli/rescaled_final/0466_fw.mp4	0.0	340.9841945171356	
75	318.4560008049011	movie	1		286	73.0	2.5	/experiments/Knapen_AOT/AOT_stimuli/rescaled_final/0466_fw.mp4	0.0	341.4086787700653	2.4920456409454346
75	319.63141083717346	pulse	1	t		73.0	2.5	/experiments/Knapen_AOT/AOT_stimuli/rescaled_final/0466_fw.mp4	0.0	342.58408880233765	
75	320.94804644584656	fix_post	2		12	73.0	2.5	/experiments/Knapen_AOT/AOT_stimuli/rescaled_final/0466_fw.mp4	0.0	343.90072441101074	0.10002279281616211
76	321.0480692386627	fix_pre	0		120	74.0	2.5	/experiments/Knapen_AOT/AOT_stimuli/rescaled_final/2108_fw.mp4	0.0	344.0007472038269	1.008509874343872
76	321.23161721229553	pulse	0	t		74.0	2.5	/experiments/Knapen_AOT/AOT_stimuli/rescaled_final/2108_fw.mp4	0.0	344.1842951774597	
76	322.0565791130066	movie	1		288	74.0	2.5	/experiments/Knapen_AOT/AOT_stimuli/rescaled_final/2108_fw.mp4	0.0	345.0092570781708	2.4919984340667725
76	322.8320918083191	pulse	1	t		74.0	2.5	/experiments/Knapen_AOT/AOT_stimuli/rescaled_final/2108_fw.mp4	0.0	345.7847697734833	
76	324.43025493621826	pulse	1	t		74.0	2.5	/experiments/Knapen_AOT/AOT_stimuli/rescaled_final/2108_fw.mp4	0.0	347.38293290138245	
76	324.54857754707336	fix_post	2		12	74.0	2.5	/experiments/Knapen_AOT/AOT_stimuli/rescaled_final/2108_fw.mp4	0.0	347.50125551223755	0.10002756118774414
77	324.6486051082611	fix_pre	0		120	75.0	2.5	/experiments/Knapen_AOT/AOT_stimuli/rescaled_final/1440_fw.mp4	0.0	347.6012830734253	1.0085201263427734
77	325.6571252346039	movie	1		290	75.0	2.5	/experiments/Knapen_AOT/AOT_stimuli/rescaled_final/1440_fw.mp4	0.0	348.60980319976807	2.492032766342163
77	326.03118419647217	pulse	1	t		75.0	2.5	/experiments/Knapen_AOT/AOT_stimuli/rescaled_final/1440_fw.mp4	0.0	348.98386216163635	
77	327.63176560401917	pulse	1	t		75.0	2.5	/experiments/Knapen_AOT/AOT_stimuli/rescaled_final/1440_fw.mp4	0.0	350.58444356918335	
77	328.14915800094604	fix_post	2		12	75.0	2.5	/experiments/Knapen_AOT/AOT_stimuli/rescaled_final/1440_fw.mp4	0.0	351.10183596611023	0.10000133514404297
78	328.2491593360901	fix_pre	0		119	76.0	2.5	/experiments/Knapen_AOT/AOT_stimuli/rescaled_final/1956_rv.mp4	0.0	351.2018373012543	1.0001516342163086
78	329.23286724090576	pulse	0	t		76.0	2.5	/experiments/Knapen_AOT/AOT_stimuli/rescaled_final/1956_rv.mp4	0.0	352.18554520606995	
78	329.2493109703064	movie	1		283	76.0	2.5	/experiments/Knapen_AOT/AOT_stimuli/rescaled_final/1956_rv.mp4	0.0	352.2019889354706	2.500356912612915
78	330.8323905467987	pulse	1	t		76.0	2.5	/experiments/Knapen_AOT/AOT_stimuli/rescaled_final/1956_rv.mp4	0.0	353.7850685119629	
78	331.7496678829193	fix_post	2		12	76.0	2.5	/experiments/Knapen_AOT/AOT_stimuli/rescaled_final/1956_rv.mp4	0.0	354.7023458480835	0.10001850128173828
79	331.84968638420105	fix_pre	0		120	77.0	2.5	blank	1.0	354.80236434936523	1.0001492500305176
79	332.43329071998596	pulse	0	t		77.0	2.5	blank	1.0	355.38596868515015	
79	332.84983563423157	movie	1		300	77.0	2.5	blank	1.0	355.80251359939575	2.500434160232544
79	334.0335774421692	pulse	1	t		77.0	2.5	blank	1.0	356.9862554073334	
79	335.3502697944641	fix_post	2		12	77.0	2.5	blank	1.0	358.3029477596283	0.09997868537902832
80	335.45024847984314	fix_pre	0		120	78.0	2.5	/experiments/Knapen_AOT/AOT_stimuli/rescaled_final/0643_fw.mp4	0.0	358.4029264450073	1.008488655090332
80	335.63379979133606	pulse	0	t		78.0	2.5	/experiments/Knapen_AOT/AOT_stimuli/rescaled_final/0643_fw.mp4	0.0	358.58647775650024	
80	336.4587371349335	movie	1		285	78.0	2.5	/experiments/Knapen_AOT/AOT_stimuli/rescaled_final/0643_fw.mp4	0.0	359.41141510009766	2.4920079708099365
80	337.232296705246	pulse	1	t		78.0	2.5	/experiments/Knapen_AOT/AOT_stimuli/rescaled_final/0643_fw.mp4	0.0	360.18497467041016	
80	338.83243203163147	pulse	1	t		78.0	2.5	/experiments/Knapen_AOT/AOT_stimuli/rescaled_final/0643_fw.mp4	0.0	361.78510999679565	
80	338.9507451057434	fix_post	2		12	78.0	2.5	/experiments/Knapen_AOT/AOT_stimuli/rescaled_final/0643_fw.mp4	0.0	361.9034230709076	0.10012984275817871
81	339.0508749485016	fix_pre	0		120	79.0	2.5	/experiments/Knapen_AOT/AOT_stimuli/rescaled_final/1217_rv.mp4	0.0	362.00355291366577	1.0084388256072998
81	340.0593137741089	movie	1		287	79.0	2.5	/experiments/Knapen_AOT/AOT_stimuli/rescaled_final/1217_rv.mp4	0.0	363.01199173927307	2.4919910430908203
81	340.43285727500916	pulse	1	t		79.0	2.5	/experiments/Knapen_AOT/AOT_stimuli/rescaled_final/1217_rv.mp4	0.0	363.38553524017334	
81	342.03299713134766	pulse	1	t		79.0	2.5	/experiments/Knapen_AOT/AOT_stimuli/rescaled_final/1217_rv.mp4	0.0	364.98567509651184	
81	342.5513048171997	fix_post	2		12	79.0	2.5	/experiments/Knapen_AOT/AOT_stimuli/rescaled_final/1217_rv.mp4	0.0	365.5039827823639	0.10000061988830566
82	342.651305437088	fix_pre	0		119	80.0	2.5	/experiments/Knapen_AOT/AOT_stimuli/rescaled_final/2035_rv.mp4	0.0	365.6039834022522	1.0001838207244873
82	343.6350066661835	pulse	0	t		80.0	2.5	/experiments/Knapen_AOT/AOT_stimuli/rescaled_final/2035_rv.mp4	0.0	366.58768463134766	
82	343.6514892578125	movie	1		285	80.0	2.5	/experiments/Knapen_AOT/AOT_stimuli/rescaled_final/2035_rv.mp4	0.0	366.6041672229767	2.5003433227539062
82	345.2338647842407	pulse	1	t		80.0	2.5	/experiments/Knapen_AOT/AOT_stimuli/rescaled_final/2035_rv.mp4	0.0	368.1865427494049	
82	346.1518325805664	fix_post	2		12	80.0	2.5	/experiments/Knapen_AOT/AOT_stimuli/rescaled_final/2035_rv.mp4	0.0	369.1045105457306	0.10006260871887207
83	346.2518951892853	fix_pre	0		120	81.0	2.5	/experiments/Knapen_AOT/AOT_stimuli/rescaled_final/1400_fw.mp4	0.0	369.20457315444946	1.0084049701690674
83	346.83595395088196	pulse	0	t		81.0	2.5	/experiments/Knapen_AOT/AOT_stimuli/rescaled_final/1400_fw.mp4	0.0	369.78863191604614	
83	347.26030015945435	movie	1		277	81.0	2.5	/experiments/Knapen_AOT/AOT_stimuli/rescaled_final/1400_fw.mp4	0.0	370.21297812461853	2.492090940475464
83	348.434072971344	pulse	1	t		81.0	2.5	/experiments/Knapen_AOT/AOT_stimuli/rescaled_final/1400_fw.mp4	0.0	371.3867509365082	
83	349.7523910999298	fix_post	2		12	81.0	2.5	/experiments/Knapen_AOT/AOT_stimuli/rescaled_final/1400_fw.mp4	0.0	372.705069065094	0.1000220775604248
84	349.85241317749023	fix_pre	0		120	82.0	2.5	/experiments/Knapen_AOT/AOT_stimuli/rescaled_final/0739_fw.mp4	0.0	372.8050911426544	1.0085794925689697
84	350.0359809398651	pulse	0	t		82.0	2.5	/experiments/Knapen_AOT/AOT_stimuli/rescaled_final/0739_fw.mp4	0.0	372.9886589050293	
84	350.8609926700592	movie	1		284	82.0	2.5	/experiments/Knapen_AOT/AOT_stimuli/rescaled_final/0739_fw.mp4	0.0	373.8136706352234	2.49192214012146
84	351.634850025177	pulse	1	t		82.0	2.5	/experiments/Knapen_AOT/AOT_stimuli/rescaled_final/0739_fw.mp4	0.0	374.5875279903412	
84	353.23475766181946	pulse	1	t		82.0	2.5	/experiments/Knapen_AOT/AOT_stimuli/rescaled_final/0739_fw.mp4	0.0	376.18743562698364	
84	353.35291481018066	fix_post	2		12	82.0	2.5	/experiments/Knapen_AOT/AOT_stimuli/rescaled_final/0739_fw.mp4	0.0	376.30559277534485	0.09999608993530273
85	353.45291090011597	fix_pre	0		120	83.0	2.5	blank	1.0	376.40558886528015	1.0001623630523682
85	354.45307326316833	movie	1		300	83.0	2.5	blank	1.0	377.4057512283325	2.5005481243133545
85	354.8366870880127	pulse	1	t		83.0	2.5	blank	1.0	377.7893650531769	
85	356.4369521141052	pulse	1	t		83.0	2.5	blank	1.0	379.3896300792694	
85	356.9536213874817	fix_post	2		12	83.0	2.5	blank	1.0	379.9062993526459	0.12488365173339844
87	357.0785050392151	stim	0		1712					380.0311830043793	14.268900394439697
87	358.0371572971344	pulse	0	t						380.9898352622986	
87	359.6373691558838	pulse	0	t						382.590047121048	
87	361.2377724647522	pulse	0	t						384.1904504299164	
87	362.8306214809418	pulse	0	t						385.78329944610596	
87	364.43110251426697	pulse	0	t						387.38378047943115	
87	366.03052711486816	pulse	0	t						388.98320508003235	
87	367.63062357902527	pulse	0	t						390.58330154418945	
87	369.23056149482727	pulse	0	t						392.18323945999146	
87	370.830842256546	pulse	0	t						393.7835202217102	
