trial_nr	onset	event_type	phase	response	nr_frames	movie_index	movie_duration	movie_file	blank	onset_abs	duration
0	0.19990110397338867	stim	0		143					88.18615126609802	1.1918299198150635
0	1.383580207824707	response	0	space						89.36983036994934	
1	1.3917310237884521	stim	0		4989					89.37798118591309	41.59427309036255
1	42.97120404243469	pulse	0	t						130.95745420455933	
1	42.986004114151	stim	1		1715					130.97225427627563	14.297461986541748
1	44.565150022506714	pulse	1	t						132.55140018463135	
1	46.16535305976868	pulse	1	t						134.1516032218933	
1	47.765406131744385	pulse	1	t						135.75165629386902	
1	49.365825176239014	pulse	1	t						137.35207533836365	
1	50.96606707572937	pulse	1	t						138.952317237854	
1	52.56620717048645	pulse	1	t						140.55245733261108	
1	54.16640520095825	pulse	1	t						142.15265536308289	
1	55.76659321784973	pulse	1	t						143.75284337997437	
2	57.28346610069275	fix_pre	0		11	0.0	2.5	/experiments/knapen_AOT/AOT_stimuli/rescaled_final/0816_fw.mp4	0.0	145.26971626281738	0.09165000915527344
2	57.36693501472473	pulse	0	t		0.0	2.5	/experiments/knapen_AOT/AOT_stimuli/rescaled_final/0816_fw.mp4	0.0	145.35318517684937	
2	57.37511610984802	movie	1		243	0.0	2.5	/experiments/knapen_AOT/AOT_stimuli/rescaled_final/0816_fw.mp4	0.0	145.36136627197266	2.5086700916290283
2	58.96793603897095	pulse	1	t		0.0	2.5	/experiments/knapen_AOT/AOT_stimuli/rescaled_final/0816_fw.mp4	0.0	146.95418620109558	
2	59.88378620147705	fix_post	2		12	0.0	2.5	/experiments/knapen_AOT/AOT_stimuli/rescaled_final/0816_fw.mp4	0.0	147.87003636360168	0.10004401206970215
3	59.98383021354675	fix_pre	0		120	1.0	2.5	/experiments/knapen_AOT/AOT_stimuli/rescaled_final/2024_rv.mp4	0.0	147.9700803756714	1.000166893005371
3	60.559951066970825	pulse	0	t		1.0	2.5	/experiments/knapen_AOT/AOT_stimuli/rescaled_final/2024_rv.mp4	0.0	148.54620122909546	
3	60.983997106552124	movie	1		245	1.0	2.5	/experiments/knapen_AOT/AOT_stimuli/rescaled_final/2024_rv.mp4	0.0	148.97024726867676	2.500433921813965
3	62.160091161727905	pulse	1	t		1.0	2.5	/experiments/knapen_AOT/AOT_stimuli/rescaled_final/2024_rv.mp4	0.0	150.14634132385254	
3	63.48443102836609	fix_post	2		12	1.0	2.5	/experiments/knapen_AOT/AOT_stimuli/rescaled_final/2024_rv.mp4	0.0	151.47068119049072	0.09994196891784668
4	63.584372997283936	fix_pre	0		120	2.0	2.5	/experiments/knapen_AOT/AOT_stimuli/rescaled_final/0639_fw.mp4	0.0	151.57062315940857	1.0001351833343506
4	63.76033616065979	pulse	0	t		2.0	2.5	/experiments/knapen_AOT/AOT_stimuli/rescaled_final/0639_fw.mp4	0.0	151.74658632278442	
4	64.58450818061829	movie	1		244	2.0	2.5	/experiments/knapen_AOT/AOT_stimuli/rescaled_final/0639_fw.mp4	0.0	152.57075834274292	2.5003509521484375
4	65.36078405380249	pulse	1	t		2.0	2.5	/experiments/knapen_AOT/AOT_stimuli/rescaled_final/0639_fw.mp4	0.0	153.34703421592712	
4	66.96007513999939	pulse	1	t		2.0	2.5	/experiments/knapen_AOT/AOT_stimuli/rescaled_final/0639_fw.mp4	0.0	154.94632530212402	
4	67.08485913276672	fix_post	2		12	2.0	2.5	/experiments/knapen_AOT/AOT_stimuli/rescaled_final/0639_fw.mp4	0.0	155.07110929489136	0.10005903244018555
5	67.18491816520691	fix_pre	0		120	3.0	2.5	/experiments/knapen_AOT/AOT_stimuli/rescaled_final/0973_fw.mp4	0.0	155.17116832733154	1.0000829696655273
5	68.18500113487244	movie	1		242	3.0	2.5	/experiments/knapen_AOT/AOT_stimuli/rescaled_final/0973_fw.mp4	0.0	156.17125129699707	2.4920740127563477
5	68.56021022796631	pulse	1	t		3.0	2.5	/experiments/knapen_AOT/AOT_stimuli/rescaled_final/0973_fw.mp4	0.0	156.54646039009094	
5	70.16071319580078	pulse	1	t		3.0	2.5	/experiments/knapen_AOT/AOT_stimuli/rescaled_final/0973_fw.mp4	0.0	158.14696335792542	
5	70.67707514762878	fix_post	2		12	3.0	2.5	/experiments/knapen_AOT/AOT_stimuli/rescaled_final/0973_fw.mp4	0.0	158.66332530975342	0.09998798370361328
6	70.7770631313324	fix_pre	0		119	4.0	2.5	/experiments/knapen_AOT/AOT_stimuli/rescaled_final/1352_rv.mp4	0.0	158.76331329345703	0.9918289184570312
6	71.7608540058136	pulse	0	t		4.0	2.5	/experiments/knapen_AOT/AOT_stimuli/rescaled_final/1352_rv.mp4	0.0	159.74710416793823	
6	71.76889204978943	movie	1		244	4.0	2.5	/experiments/knapen_AOT/AOT_stimuli/rescaled_final/1352_rv.mp4	0.0	159.75514221191406	2.5087270736694336
6	73.36632108688354	pulse	1	t		4.0	2.5	/experiments/knapen_AOT/AOT_stimuli/rescaled_final/1352_rv.mp4	0.0	161.35257124900818	
6	74.27761912345886	fix_post	2		12	4.0	2.5	/experiments/knapen_AOT/AOT_stimuli/rescaled_final/1352_rv.mp4	0.0	162.2638692855835	0.10008692741394043
7	74.3777060508728	fix_pre	0		120	5.0	2.5	/experiments/knapen_AOT/AOT_stimuli/rescaled_final/1951_fw.mp4	0.0	162.36395621299744	1.0000700950622559
7	74.96129822731018	pulse	0	t		5.0	2.5	/experiments/knapen_AOT/AOT_stimuli/rescaled_final/1951_fw.mp4	0.0	162.94754838943481	
7	75.37777614593506	movie	1		243	5.0	2.5	/experiments/knapen_AOT/AOT_stimuli/rescaled_final/1951_fw.mp4	0.0	163.3640263080597	2.500375986099243
7	76.56155514717102	pulse	1	t		5.0	2.5	/experiments/knapen_AOT/AOT_stimuli/rescaled_final/1951_fw.mp4	0.0	164.54780530929565	
7	77.8781521320343	fix_post	2		12	5.0	2.5	/experiments/knapen_AOT/AOT_stimuli/rescaled_final/1951_fw.mp4	0.0	165.86440229415894	0.0999910831451416
8	77.97814321517944	fix_pre	0		120	6.0	2.5	/experiments/knapen_AOT/AOT_stimuli/rescaled_final/1826_fw.mp4	0.0	165.96439337730408	1.0001418590545654
8	78.16173720359802	pulse	0	t		6.0	2.5	/experiments/knapen_AOT/AOT_stimuli/rescaled_final/1826_fw.mp4	0.0	166.14798736572266	
8	78.97828507423401	movie	1		245	6.0	2.5	/experiments/knapen_AOT/AOT_stimuli/rescaled_final/1826_fw.mp4	0.0	166.96453523635864	2.5003809928894043
8	79.7619981765747	pulse	1	t		6.0	2.5	/experiments/knapen_AOT/AOT_stimuli/rescaled_final/1826_fw.mp4	0.0	167.74824833869934	
8	81.36003518104553	pulse	1	t		6.0	2.5	/experiments/knapen_AOT/AOT_stimuli/rescaled_final/1826_fw.mp4	0.0	169.34628534317017	
8	81.47866606712341	fix_post	2		12	6.0	2.5	/experiments/knapen_AOT/AOT_stimuli/rescaled_final/1826_fw.mp4	0.0	169.46491622924805	0.10001611709594727
9	81.57868218421936	fix_pre	0		120	7.0	2.5	blank	1.0	169.564932346344	1.000187873840332
9	82.57887005805969	movie	1		299	7.0	2.5	blank	1.0	170.56512022018433	2.4919991493225098
9	82.96244812011719	pulse	1	t		7.0	2.5	blank	1.0	170.94869828224182	
9	84.56277203559875	pulse	1	t		7.0	2.5	blank	1.0	172.5490221977234	
9	85.0708692073822	fix_post	2		12	7.0	2.5	blank	1.0	173.05711936950684	0.1000368595123291
10	85.17090606689453	fix_pre	0		120	8.0	2.5	/experiments/knapen_AOT/AOT_stimuli/rescaled_final/1195_fw.mp4	0.0	173.15715622901917	1.0001389980316162
10	86.16297316551208	pulse	0	t		8.0	2.5	/experiments/knapen_AOT/AOT_stimuli/rescaled_final/1195_fw.mp4	0.0	174.14922332763672	
10	86.17104506492615	movie	1		245	8.0	2.5	/experiments/knapen_AOT/AOT_stimuli/rescaled_final/1195_fw.mp4	0.0	174.15729522705078	2.508697986602783
10	87.7640221118927	pulse	1	t		8.0	2.5	/experiments/knapen_AOT/AOT_stimuli/rescaled_final/1195_fw.mp4	0.0	175.75027227401733	
10	88.67974305152893	fix_post	2		12	8.0	2.5	/experiments/knapen_AOT/AOT_stimuli/rescaled_final/1195_fw.mp4	0.0	176.66599321365356	0.10003399848937988
11	88.77977705001831	fix_pre	0		120	9.0	2.5	/experiments/knapen_AOT/AOT_stimuli/rescaled_final/0155_fw.mp4	0.0	176.76602721214294	1.0001051425933838
11	89.36337614059448	pulse	0	t		9.0	2.5	/experiments/knapen_AOT/AOT_stimuli/rescaled_final/0155_fw.mp4	0.0	177.34962630271912	
11	89.7798821926117	movie	1		243	9.0	2.5	/experiments/knapen_AOT/AOT_stimuli/rescaled_final/0155_fw.mp4	0.0	177.76613235473633	2.500403881072998
11	90.96378111839294	pulse	1	t		9.0	2.5	/experiments/knapen_AOT/AOT_stimuli/rescaled_final/0155_fw.mp4	0.0	178.95003128051758	
11	92.28028607368469	fix_post	2		12	9.0	2.5	/experiments/knapen_AOT/AOT_stimuli/rescaled_final/0155_fw.mp4	0.0	180.26653623580933	0.10001111030578613
12	92.38029718399048	fix_pre	0		117	10.0	2.5	/experiments/knapen_AOT/AOT_stimuli/rescaled_final/2002_rv.mp4	0.0	180.3665473461151	1.0002059936523438
12	92.56392908096313	pulse	0	t		10.0	2.5	/experiments/knapen_AOT/AOT_stimuli/rescaled_final/2002_rv.mp4	0.0	180.55017924308777	
12	93.38050317764282	movie	1		244	10.0	2.5	/experiments/knapen_AOT/AOT_stimuli/rescaled_final/2002_rv.mp4	0.0	181.36675333976746	2.500351905822754
12	94.16411519050598	pulse	1	t		10.0	2.5	/experiments/knapen_AOT/AOT_stimuli/rescaled_final/2002_rv.mp4	0.0	182.15036535263062	
12	95.76447010040283	pulse	1	t		10.0	2.5	/experiments/knapen_AOT/AOT_stimuli/rescaled_final/2002_rv.mp4	0.0	183.75072026252747	
12	95.88085508346558	fix_post	2		12	10.0	2.5	/experiments/knapen_AOT/AOT_stimuli/rescaled_final/2002_rv.mp4	0.0	183.8671052455902	0.0999910831451416
13	95.98084616661072	fix_pre	0		120	11.0	2.5	/experiments/knapen_AOT/AOT_stimuli/rescaled_final/1656_rv.mp4	0.0	183.96709632873535	1.0001459121704102
13	96.98099207878113	movie	1		242	11.0	2.5	/experiments/knapen_AOT/AOT_stimuli/rescaled_final/1656_rv.mp4	0.0	184.96724224090576	2.492025136947632
13	97.36924505233765	pulse	1	t		11.0	2.5	/experiments/knapen_AOT/AOT_stimuli/rescaled_final/1656_rv.mp4	0.0	185.35549521446228	
13	98.96489000320435	pulse	1	t		11.0	2.5	/experiments/knapen_AOT/AOT_stimuli/rescaled_final/1656_rv.mp4	0.0	186.95114016532898	
13	99.47301721572876	fix_post	2		12	11.0	2.5	/experiments/knapen_AOT/AOT_stimuli/rescaled_final/1656_rv.mp4	0.0	187.4592673778534	0.10002589225769043
14	99.57304310798645	fix_pre	0		120	12.0	2.5	/experiments/knapen_AOT/AOT_stimuli/rescaled_final/0355_fw.mp4	0.0	187.55929327011108	1.000135898590088
14	100.56511902809143	pulse	0	t		12.0	2.5	/experiments/knapen_AOT/AOT_stimuli/rescaled_final/0355_fw.mp4	0.0	188.55136919021606	
14	100.57317900657654	movie	1		246	12.0	2.5	/experiments/knapen_AOT/AOT_stimuli/rescaled_final/0355_fw.mp4	0.0	188.55942916870117	2.5087451934814453
14	102.1659049987793	pulse	1	t		12.0	2.5	/experiments/knapen_AOT/AOT_stimuli/rescaled_final/0355_fw.mp4	0.0	190.15215516090393	
14	103.08192420005798	fix_post	2		12	12.0	2.5	/experiments/knapen_AOT/AOT_stimuli/rescaled_final/0355_fw.mp4	0.0	191.06817436218262	0.10001683235168457
15	103.18194103240967	fix_pre	0		120	13.0	2.5	blank	1.0	191.1681911945343	1.0001499652862549
15	103.7654721736908	pulse	0	t		13.0	2.5	blank	1.0	191.75172233581543	
15	104.18209099769592	movie	1		300	13.0	2.5	blank	1.0	192.16834115982056	2.500378131866455
15	105.36584711074829	pulse	1	t		13.0	2.5	blank	1.0	193.35209727287292	
15	106.68246912956238	fix_post	2		12	13.0	2.5	blank	1.0	194.668719291687	0.09996700286865234
16	106.78243613243103	fix_pre	0		120	14.0	2.5	/experiments/knapen_AOT/AOT_stimuli/rescaled_final/0354_rv.mp4	0.0	194.76868629455566	1.0001800060272217
16	106.96612405776978	pulse	0	t		14.0	2.5	/experiments/knapen_AOT/AOT_stimuli/rescaled_final/0354_rv.mp4	0.0	194.9523742198944	
16	107.78261613845825	movie	1		244	14.0	2.5	/experiments/knapen_AOT/AOT_stimuli/rescaled_final/0354_rv.mp4	0.0	195.76886630058289	2.500370979309082
16	108.56626915931702	pulse	1	t		14.0	2.5	/experiments/knapen_AOT/AOT_stimuli/rescaled_final/0354_rv.mp4	0.0	196.55251932144165	
16	110.16643810272217	pulse	1	t		14.0	2.5	/experiments/knapen_AOT/AOT_stimuli/rescaled_final/0354_rv.mp4	0.0	198.1526882648468	
16	110.28298711776733	fix_post	2		12	14.0	2.5	/experiments/knapen_AOT/AOT_stimuli/rescaled_final/0354_rv.mp4	0.0	198.26923727989197	0.10005807876586914
17	110.3830451965332	fix_pre	0		120	15.0	2.5	/experiments/knapen_AOT/AOT_stimuli/rescaled_final/0155_fw.mp4	0.0	198.36929535865784	1.0000879764556885
17	111.38313317298889	movie	1		242	15.0	2.5	/experiments/knapen_AOT/AOT_stimuli/rescaled_final/0155_fw.mp4	0.0	199.36938333511353	2.492043972015381
17	111.76709699630737	pulse	1	t		15.0	2.5	/experiments/knapen_AOT/AOT_stimuli/rescaled_final/0155_fw.mp4	0.0	199.753347158432	
17	113.36697220802307	pulse	1	t		15.0	2.5	/experiments/knapen_AOT/AOT_stimuli/rescaled_final/0155_fw.mp4	0.0	201.3532223701477	
17	113.87517714500427	fix_post	2		12	15.0	2.5	/experiments/knapen_AOT/AOT_stimuli/rescaled_final/0155_fw.mp4	0.0	201.8614273071289	0.10001087188720703
18	113.97518801689148	fix_pre	0		120	16.0	2.5	/experiments/knapen_AOT/AOT_stimuli/rescaled_final/0994_fw.mp4	0.0	201.9614381790161	1.0001351833343506
18	114.96723914146423	pulse	0	t		16.0	2.5	/experiments/knapen_AOT/AOT_stimuli/rescaled_final/0994_fw.mp4	0.0	202.95348930358887	
18	114.97532320022583	movie	1		244	16.0	2.5	/experiments/knapen_AOT/AOT_stimuli/rescaled_final/0994_fw.mp4	0.0	202.96157336235046	2.5087318420410156
18	116.56799507141113	pulse	1	t		16.0	2.5	/experiments/knapen_AOT/AOT_stimuli/rescaled_final/0994_fw.mp4	0.0	204.55424523353577	
18	117.48405504226685	fix_post	2		12	16.0	2.5	/experiments/knapen_AOT/AOT_stimuli/rescaled_final/0994_fw.mp4	0.0	205.47030520439148	0.10002398490905762
19	117.5840790271759	fix_pre	0		120	17.0	2.5	/experiments/knapen_AOT/AOT_stimuli/rescaled_final/0568_fw.mp4	0.0	205.57032918930054	1.000154972076416
19	118.16779208183289	pulse	0	t		17.0	2.5	/experiments/knapen_AOT/AOT_stimuli/rescaled_final/0568_fw.mp4	0.0	206.15404224395752	
19	118.58423399925232	movie	1		243	17.0	2.5	/experiments/knapen_AOT/AOT_stimuli/rescaled_final/0568_fw.mp4	0.0	206.57048416137695	2.500364065170288
19	119.76807904243469	pulse	1	t		17.0	2.5	/experiments/knapen_AOT/AOT_stimuli/rescaled_final/0568_fw.mp4	0.0	207.75432920455933	
19	121.08459806442261	fix_post	2		12	17.0	2.5	/experiments/knapen_AOT/AOT_stimuli/rescaled_final/0568_fw.mp4	0.0	209.07084822654724	0.10008096694946289
20	121.18467903137207	fix_pre	0		120	18.0	2.5	/experiments/knapen_AOT/AOT_stimuli/rescaled_final/0841_rv.mp4	0.0	209.1709291934967	1.0000591278076172
20	121.36076402664185	pulse	0	t		18.0	2.5	/experiments/knapen_AOT/AOT_stimuli/rescaled_final/0841_rv.mp4	0.0	209.34701418876648	
20	122.18473815917969	movie	1		247	18.0	2.5	/experiments/knapen_AOT/AOT_stimuli/rescaled_final/0841_rv.mp4	0.0	210.17098832130432	2.5004448890686035
20	122.96100211143494	pulse	1	t		18.0	2.5	/experiments/knapen_AOT/AOT_stimuli/rescaled_final/0841_rv.mp4	0.0	210.94725227355957	
20	124.561115026474	pulse	1	t		18.0	2.5	/experiments/knapen_AOT/AOT_stimuli/rescaled_final/0841_rv.mp4	0.0	212.54736518859863	
20	124.68518304824829	fix_post	2		12	18.0	2.5	/experiments/knapen_AOT/AOT_stimuli/rescaled_final/0841_rv.mp4	0.0	212.67143321037292	0.09995198249816895
21	124.78513503074646	fix_pre	0		120	19.0	2.5	blank	1.0	212.7713851928711	1.0001661777496338
21	125.7853012084961	movie	1		299	19.0	2.5	blank	1.0	213.77155137062073	2.4920389652252197
21	126.16065001487732	pulse	1	t		19.0	2.5	blank	1.0	214.14690017700195	
21	127.7607409954071	pulse	1	t		19.0	2.5	blank	1.0	215.74699115753174	
21	128.2773401737213	fix_post	2		12	19.0	2.5	blank	1.0	216.26359033584595	0.09999990463256836
22	128.37734007835388	fix_pre	0		119	20.0	2.5	/experiments/knapen_AOT/AOT_stimuli/rescaled_final/0429_rv.mp4	0.0	216.36359024047852	0.9918160438537598
22	129.36098623275757	pulse	0	t		20.0	2.5	/experiments/knapen_AOT/AOT_stimuli/rescaled_final/0429_rv.mp4	0.0	217.3472363948822	
22	129.36915612220764	movie	1		244	20.0	2.5	/experiments/knapen_AOT/AOT_stimuli/rescaled_final/0429_rv.mp4	0.0	217.35540628433228	2.5087080001831055
22	130.9653730392456	pulse	1	t		20.0	2.5	/experiments/knapen_AOT/AOT_stimuli/rescaled_final/0429_rv.mp4	0.0	218.95162320137024	
22	131.87786412239075	fix_post	2		12	20.0	2.5	/experiments/knapen_AOT/AOT_stimuli/rescaled_final/0429_rv.mp4	0.0	219.86411428451538	0.10003089904785156
23	131.9778950214386	fix_pre	0		120	21.0	2.5	/experiments/knapen_AOT/AOT_stimuli/rescaled_final/0563_rv.mp4	0.0	219.96414518356323	1.0001270771026611
23	132.56143021583557	pulse	0	t		21.0	2.5	/experiments/knapen_AOT/AOT_stimuli/rescaled_final/0563_rv.mp4	0.0	220.5476803779602	
23	132.97802209854126	movie	1		244	21.0	2.5	/experiments/knapen_AOT/AOT_stimuli/rescaled_final/0563_rv.mp4	0.0	220.9642722606659	2.500369071960449
23	134.16183710098267	pulse	1	t		21.0	2.5	/experiments/knapen_AOT/AOT_stimuli/rescaled_final/0563_rv.mp4	0.0	222.1480872631073	
23	135.4783911705017	fix_post	2		12	21.0	2.5	/experiments/knapen_AOT/AOT_stimuli/rescaled_final/0563_rv.mp4	0.0	223.46464133262634	0.10011887550354004
24	135.57851004600525	fix_pre	0		120	22.0	2.5	/experiments/knapen_AOT/AOT_stimuli/rescaled_final/2164_fw.mp4	0.0	223.56476020812988	1.0000710487365723
24	135.7619709968567	pulse	0	t		22.0	2.5	/experiments/knapen_AOT/AOT_stimuli/rescaled_final/2164_fw.mp4	0.0	223.74822115898132	
24	136.57858109474182	movie	1		243	22.0	2.5	/experiments/knapen_AOT/AOT_stimuli/rescaled_final/2164_fw.mp4	0.0	224.56483125686646	2.5003819465637207
24	137.36221599578857	pulse	1	t		22.0	2.5	/experiments/knapen_AOT/AOT_stimuli/rescaled_final/2164_fw.mp4	0.0	225.3484661579132	
24	138.9625301361084	pulse	1	t		22.0	2.5	/experiments/knapen_AOT/AOT_stimuli/rescaled_final/2164_fw.mp4	0.0	226.94878029823303	
24	139.07896304130554	fix_post	2		12	22.0	2.5	/experiments/knapen_AOT/AOT_stimuli/rescaled_final/2164_fw.mp4	0.0	227.06521320343018	0.10002517700195312
25	139.1789882183075	fix_pre	0		120	23.0	2.5	/experiments/knapen_AOT/AOT_stimuli/rescaled_final/0633_rv.mp4	0.0	227.16523838043213	1.000166893005371
25	140.17915511131287	movie	1		242	23.0	2.5	/experiments/knapen_AOT/AOT_stimuli/rescaled_final/0633_rv.mp4	0.0	228.1654052734375	2.491990089416504
25	140.56319403648376	pulse	1	t		23.0	2.5	/experiments/knapen_AOT/AOT_stimuli/rescaled_final/0633_rv.mp4	0.0	228.5494441986084	
25	142.16303300857544	pulse	1	t		23.0	2.5	/experiments/knapen_AOT/AOT_stimuli/rescaled_final/0633_rv.mp4	0.0	230.14928317070007	
25	142.67114520072937	fix_post	2		12	23.0	2.5	/experiments/knapen_AOT/AOT_stimuli/rescaled_final/0633_rv.mp4	0.0	230.657395362854	0.09999394416809082
26	142.77113914489746	fix_pre	0		120	24.0	2.5	/experiments/knapen_AOT/AOT_stimuli/rescaled_final/1999_rv.mp4	0.0	230.7573893070221	1.0001599788665771
26	143.76320815086365	pulse	0	t		24.0	2.5	/experiments/knapen_AOT/AOT_stimuli/rescaled_final/1999_rv.mp4	0.0	231.74945831298828	
26	143.77129912376404	movie	1		244	24.0	2.5	/experiments/knapen_AOT/AOT_stimuli/rescaled_final/1999_rv.mp4	0.0	231.75754928588867	2.508716106414795
26	145.3641631603241	pulse	1	t		24.0	2.5	/experiments/knapen_AOT/AOT_stimuli/rescaled_final/1999_rv.mp4	0.0	233.35041332244873	
26	146.28001523017883	fix_post	2		12	24.0	2.5	/experiments/knapen_AOT/AOT_stimuli/rescaled_final/1999_rv.mp4	0.0	234.26626539230347	0.1000509262084961
27	146.38006615638733	fix_pre	0		120	25.0	2.5	/experiments/knapen_AOT/AOT_stimuli/rescaled_final/0343_rv.mp4	0.0	234.36631631851196	1.0001089572906494
27	146.9636070728302	pulse	0	t		25.0	2.5	/experiments/knapen_AOT/AOT_stimuli/rescaled_final/0343_rv.mp4	0.0	234.94985723495483	
27	147.38017511367798	movie	1		243	25.0	2.5	/experiments/knapen_AOT/AOT_stimuli/rescaled_final/0343_rv.mp4	0.0	235.3664252758026	2.5003650188446045
27	148.55991220474243	pulse	1	t		25.0	2.5	/experiments/knapen_AOT/AOT_stimuli/rescaled_final/0343_rv.mp4	0.0	236.54616236686707	
27	149.88054013252258	fix_post	2		12	25.0	2.5	/experiments/knapen_AOT/AOT_stimuli/rescaled_final/0343_rv.mp4	0.0	237.86679029464722	0.10001707077026367
28	149.98055720329285	fix_pre	0		120	26.0	2.5	/experiments/knapen_AOT/AOT_stimuli/rescaled_final/1661_rv.mp4	0.0	237.96680736541748	1.0001769065856934
28	150.16424322128296	pulse	0	t		26.0	2.5	/experiments/knapen_AOT/AOT_stimuli/rescaled_final/1661_rv.mp4	0.0	238.1504933834076	
28	150.98073410987854	movie	1		243	26.0	2.5	/experiments/knapen_AOT/AOT_stimuli/rescaled_final/1661_rv.mp4	0.0	238.96698427200317	2.5004959106445312
28	151.7643802165985	pulse	1	t		26.0	2.5	/experiments/knapen_AOT/AOT_stimuli/rescaled_final/1661_rv.mp4	0.0	239.75063037872314	
28	153.36471319198608	pulse	1	t		26.0	2.5	/experiments/knapen_AOT/AOT_stimuli/rescaled_final/1661_rv.mp4	0.0	241.35096335411072	
28	153.48123002052307	fix_post	2		10	26.0	2.5	/experiments/knapen_AOT/AOT_stimuli/rescaled_final/1661_rv.mp4	0.0	241.4674801826477	0.09992599487304688
29	153.58115601539612	fix_pre	0		120	27.0	2.5	blank	1.0	241.56740617752075	1.0001060962677002
29	154.58126211166382	movie	1		299	27.0	2.5	blank	1.0	242.56751227378845	2.4920520782470703
29	154.96481704711914	pulse	1	t		27.0	2.5	blank	1.0	242.95106720924377	
29	156.56505608558655	pulse	1	t		27.0	2.5	blank	1.0	244.55130624771118	
29	157.0733141899109	fix_post	2		12	27.0	2.5	blank	1.0	245.05956435203552	0.10000491142272949
30	157.17331910133362	fix_pre	0		120	28.0	2.5	/experiments/knapen_AOT/AOT_stimuli/rescaled_final/1298_fw.mp4	0.0	245.15956926345825	1.0001909732818604
30	158.16532516479492	pulse	0	t		28.0	2.5	/experiments/knapen_AOT/AOT_stimuli/rescaled_final/1298_fw.mp4	0.0	246.15157532691956	
30	158.17351007461548	movie	1		244	28.0	2.5	/experiments/knapen_AOT/AOT_stimuli/rescaled_final/1298_fw.mp4	0.0	246.1597602367401	2.5086770057678223
30	159.76618313789368	pulse	1	t		28.0	2.5	/experiments/knapen_AOT/AOT_stimuli/rescaled_final/1298_fw.mp4	0.0	247.7524333000183	
30	160.6821870803833	fix_post	2		12	28.0	2.5	/experiments/knapen_AOT/AOT_stimuli/rescaled_final/1298_fw.mp4	0.0	248.66843724250793	0.09997892379760742
31	160.7821660041809	fix_pre	0		120	29.0	2.5	/experiments/knapen_AOT/AOT_stimuli/rescaled_final/0600_rv.mp4	0.0	248.76841616630554	1.00018310546875
31	161.36586904525757	pulse	0	t		29.0	2.5	/experiments/knapen_AOT/AOT_stimuli/rescaled_final/0600_rv.mp4	0.0	249.3521192073822	
31	161.78234910964966	movie	1		245	29.0	2.5	/experiments/knapen_AOT/AOT_stimuli/rescaled_final/0600_rv.mp4	0.0	249.7685992717743	2.5003509521484375
31	162.96613907814026	pulse	1	t		29.0	2.5	/experiments/knapen_AOT/AOT_stimuli/rescaled_final/0600_rv.mp4	0.0	250.9523892402649	
31	164.2827000617981	fix_post	2		12	29.0	2.5	/experiments/knapen_AOT/AOT_stimuli/rescaled_final/0600_rv.mp4	0.0	252.26895022392273	0.10008096694946289
32	164.38278102874756	fix_pre	0		120	30.0	2.5	/experiments/knapen_AOT/AOT_stimuli/rescaled_final/1307_rv.mp4	0.0	252.3690311908722	1.0001161098480225
32	164.56626105308533	pulse	0	t		30.0	2.5	/experiments/knapen_AOT/AOT_stimuli/rescaled_final/1307_rv.mp4	0.0	252.55251121520996	
32	165.38289713859558	movie	1		243	30.0	2.5	/experiments/knapen_AOT/AOT_stimuli/rescaled_final/1307_rv.mp4	0.0	253.36914730072021	2.5003468990325928
32	166.1664960384369	pulse	1	t		30.0	2.5	/experiments/knapen_AOT/AOT_stimuli/rescaled_final/1307_rv.mp4	0.0	254.15274620056152	
32	167.7669701576233	pulse	1	t		30.0	2.5	/experiments/knapen_AOT/AOT_stimuli/rescaled_final/1307_rv.mp4	0.0	255.75322031974792	
32	167.88324403762817	fix_post	2		12	30.0	2.5	/experiments/knapen_AOT/AOT_stimuli/rescaled_final/1307_rv.mp4	0.0	255.8694941997528	0.10001301765441895
33	167.9832570552826	fix_pre	0		120	31.0	2.5	/experiments/knapen_AOT/AOT_stimuli/rescaled_final/2039_fw.mp4	0.0	255.96950721740723	1.000157117843628
33	168.98341417312622	movie	1		242	31.0	2.5	/experiments/knapen_AOT/AOT_stimuli/rescaled_final/2039_fw.mp4	0.0	256.96966433525085	2.4920549392700195
33	169.36837315559387	pulse	1	t		31.0	2.5	/experiments/knapen_AOT/AOT_stimuli/rescaled_final/2039_fw.mp4	0.0	257.3546233177185	
33	170.96724820137024	pulse	1	t		31.0	2.5	/experiments/knapen_AOT/AOT_stimuli/rescaled_final/2039_fw.mp4	0.0	258.9534983634949	
33	171.47546911239624	fix_post	2		12	31.0	2.5	/experiments/knapen_AOT/AOT_stimuli/rescaled_final/2039_fw.mp4	0.0	259.4617192745209	0.09998798370361328
34	171.57545709609985	fix_pre	0		120	32.0	2.5	/experiments/knapen_AOT/AOT_stimuli/rescaled_final/0494_rv.mp4	0.0	259.5617072582245	1.0001649856567383
34	172.56742119789124	pulse	0	t		32.0	2.5	/experiments/knapen_AOT/AOT_stimuli/rescaled_final/0494_rv.mp4	0.0	260.55367136001587	
34	172.5756220817566	movie	1		244	32.0	2.5	/experiments/knapen_AOT/AOT_stimuli/rescaled_final/0494_rv.mp4	0.0	260.5618722438812	2.508690118789673
34	174.16816210746765	pulse	1	t		32.0	2.5	/experiments/knapen_AOT/AOT_stimuli/rescaled_final/0494_rv.mp4	0.0	262.1544122695923	
34	175.08431220054626	fix_post	2		12	32.0	2.5	/experiments/knapen_AOT/AOT_stimuli/rescaled_final/0494_rv.mp4	0.0	263.0705623626709	0.10001397132873535
35	175.184326171875	fix_pre	0		120	33.0	2.5	/experiments/knapen_AOT/AOT_stimuli/rescaled_final/0331_rv.mp4	0.0	263.17057633399963	1.000187873840332
35	175.7605700492859	pulse	0	t		33.0	2.5	/experiments/knapen_AOT/AOT_stimuli/rescaled_final/0331_rv.mp4	0.0	263.7468202114105	
35	176.18451404571533	movie	1		243	33.0	2.5	/experiments/knapen_AOT/AOT_stimuli/rescaled_final/0331_rv.mp4	0.0	264.17076420783997	2.5003390312194824
35	177.363872051239	pulse	1	t		33.0	2.5	/experiments/knapen_AOT/AOT_stimuli/rescaled_final/0331_rv.mp4	0.0	265.35012221336365	
35	178.68485307693481	fix_post	2		12	33.0	2.5	/experiments/knapen_AOT/AOT_stimuli/rescaled_final/0331_rv.mp4	0.0	266.67110323905945	0.10002708435058594
36	178.7848801612854	fix_pre	0		120	34.0	2.5	blank	1.0	266.77113032341003	1.0001468658447266
36	178.96100521087646	pulse	0	t		34.0	2.5	blank	1.0	266.9472553730011	
36	179.78502702713013	movie	1		300	34.0	2.5	blank	1.0	267.77127718925476	2.5004191398620605
36	180.56040215492249	pulse	1	t		34.0	2.5	blank	1.0	268.5466523170471	
36	182.16044521331787	pulse	1	t		34.0	2.5	blank	1.0	270.1466953754425	
36	182.2854461669922	fix_post	2		12	34.0	2.5	blank	1.0	270.2716963291168	0.09993886947631836
37	182.3853850364685	fix_pre	0		120	35.0	2.5	/experiments/knapen_AOT/AOT_stimuli/rescaled_final/1236_fw.mp4	0.0	270.37163519859314	1.0001771450042725
37	183.38556218147278	movie	1		242	35.0	2.5	/experiments/knapen_AOT/AOT_stimuli/rescaled_final/1236_fw.mp4	0.0	271.3718123435974	2.4920709133148193
37	183.76076221466064	pulse	1	t		35.0	2.5	/experiments/knapen_AOT/AOT_stimuli/rescaled_final/1236_fw.mp4	0.0	271.7470123767853	
37	185.36120915412903	pulse	1	t		35.0	2.5	/experiments/knapen_AOT/AOT_stimuli/rescaled_final/1236_fw.mp4	0.0	273.34745931625366	
37	185.8776330947876	fix_post	2		12	35.0	2.5	/experiments/knapen_AOT/AOT_stimuli/rescaled_final/1236_fw.mp4	0.0	273.86388325691223	0.10000205039978027
38	185.97763514518738	fix_pre	0		119	36.0	2.5	/experiments/knapen_AOT/AOT_stimuli/rescaled_final/0886_rv.mp4	0.0	273.963885307312	0.9917800426483154
38	186.96125602722168	pulse	0	t		36.0	2.5	/experiments/knapen_AOT/AOT_stimuli/rescaled_final/0886_rv.mp4	0.0	274.9475061893463	
38	186.9694151878357	movie	1		245	36.0	2.5	/experiments/knapen_AOT/AOT_stimuli/rescaled_final/0886_rv.mp4	0.0	274.9556653499603	2.5087029933929443
38	188.56274509429932	pulse	1	t		36.0	2.5	/experiments/knapen_AOT/AOT_stimuli/rescaled_final/0886_rv.mp4	0.0	276.54899525642395	
38	189.47811818122864	fix_post	2		12	36.0	2.5	/experiments/knapen_AOT/AOT_stimuli/rescaled_final/0886_rv.mp4	0.0	277.46436834335327	0.1000208854675293
39	189.57813906669617	fix_pre	0		120	37.0	2.5	/experiments/knapen_AOT/AOT_stimuli/rescaled_final/1354_fw.mp4	0.0	277.5643892288208	1.000209093093872
39	190.16174602508545	pulse	0	t		37.0	2.5	/experiments/knapen_AOT/AOT_stimuli/rescaled_final/1354_fw.mp4	0.0	278.1479961872101	
39	190.57834815979004	movie	1		243	37.0	2.5	/experiments/knapen_AOT/AOT_stimuli/rescaled_final/1354_fw.mp4	0.0	278.5645983219147	2.5003130435943604
39	191.7621350288391	pulse	1	t		37.0	2.5	/experiments/knapen_AOT/AOT_stimuli/rescaled_final/1354_fw.mp4	0.0	279.74838519096375	
39	193.0786612033844	fix_post	2		12	37.0	2.5	/experiments/knapen_AOT/AOT_stimuli/rescaled_final/1354_fw.mp4	0.0	281.06491136550903	0.10000896453857422
40	193.17867016792297	fix_pre	0		120	38.0	2.5	/experiments/knapen_AOT/AOT_stimuli/rescaled_final/0973_fw.mp4	0.0	281.1649203300476	1.000190019607544
40	193.36220622062683	pulse	0	t		38.0	2.5	/experiments/knapen_AOT/AOT_stimuli/rescaled_final/0973_fw.mp4	0.0	281.34845638275146	
40	194.17886018753052	movie	1		244	38.0	2.5	/experiments/knapen_AOT/AOT_stimuli/rescaled_final/0973_fw.mp4	0.0	282.16511034965515	2.500349998474121
40	194.9624421596527	pulse	1	t		38.0	2.5	/experiments/knapen_AOT/AOT_stimuli/rescaled_final/0973_fw.mp4	0.0	282.94869232177734	
40	196.56279015541077	pulse	1	t		38.0	2.5	/experiments/knapen_AOT/AOT_stimuli/rescaled_final/0973_fw.mp4	0.0	284.5490403175354	
40	196.67921018600464	fix_post	2		12	38.0	2.5	/experiments/knapen_AOT/AOT_stimuli/rescaled_final/0973_fw.mp4	0.0	284.6654603481293	0.09998703002929688
41	196.77919721603394	fix_pre	0		119	39.0	2.5	/experiments/knapen_AOT/AOT_stimuli/rescaled_final/0132_fw.mp4	0.0	284.76544737815857	0.9918367862701416
41	197.77103400230408	movie	1		244	39.0	2.5	/experiments/knapen_AOT/AOT_stimuli/rescaled_final/0132_fw.mp4	0.0	285.7572841644287	2.5004210472106934
41	198.16304206848145	pulse	1	t		39.0	2.5	/experiments/knapen_AOT/AOT_stimuli/rescaled_final/0132_fw.mp4	0.0	286.1492922306061	
41	199.76320099830627	pulse	1	t		39.0	2.5	/experiments/knapen_AOT/AOT_stimuli/rescaled_final/0132_fw.mp4	0.0	287.7494511604309	
41	200.27145504951477	fix_post	2		12	39.0	2.5	/experiments/knapen_AOT/AOT_stimuli/rescaled_final/0132_fw.mp4	0.0	288.2577052116394	0.10002613067626953
42	200.37148118019104	fix_pre	0		120	40.0	2.5	/experiments/knapen_AOT/AOT_stimuli/rescaled_final/0635_rv.mp4	0.0	288.3577313423157	1.0001089572906494
42	201.36338305473328	pulse	0	t		40.0	2.5	/experiments/knapen_AOT/AOT_stimuli/rescaled_final/0635_rv.mp4	0.0	289.3496332168579	
42	201.3715901374817	movie	1		244	40.0	2.5	/experiments/knapen_AOT/AOT_stimuli/rescaled_final/0635_rv.mp4	0.0	289.3578402996063	2.508655071258545
42	202.96475219726562	pulse	1	t		40.0	2.5	/experiments/knapen_AOT/AOT_stimuli/rescaled_final/0635_rv.mp4	0.0	290.95100235939026	
42	203.88024520874023	fix_post	2		12	40.0	2.5	/experiments/knapen_AOT/AOT_stimuli/rescaled_final/0635_rv.mp4	0.0	291.86649537086487	0.10006189346313477
43	203.98030710220337	fix_pre	0		120	41.0	2.5	blank	1.0	291.966557264328	1.000201940536499
43	204.56404900550842	pulse	0	t		41.0	2.5	blank	1.0	292.55029916763306	
43	204.98050904273987	movie	1		300	41.0	2.5	blank	1.0	292.9667592048645	2.50030517578125
43	206.16419219970703	pulse	1	t		41.0	2.5	blank	1.0	294.15044236183167	
43	207.48081421852112	fix_post	2		12	41.0	2.5	blank	1.0	295.46706438064575	0.1000828742980957
44	207.5808970928192	fix_pre	0		120	42.0	2.5	/experiments/knapen_AOT/AOT_stimuli/rescaled_final/0165_fw.mp4	0.0	295.56714725494385	1.0001070499420166
44	207.76434206962585	pulse	0	t		42.0	2.5	/experiments/knapen_AOT/AOT_stimuli/rescaled_final/0165_fw.mp4	0.0	295.7505922317505	
44	208.58100414276123	movie	1		243	42.0	2.5	/experiments/knapen_AOT/AOT_stimuli/rescaled_final/0165_fw.mp4	0.0	296.56725430488586	2.500343084335327
44	209.36465001106262	pulse	1	t		42.0	2.5	/experiments/knapen_AOT/AOT_stimuli/rescaled_final/0165_fw.mp4	0.0	297.35090017318726	
44	210.9647262096405	pulse	1	t		42.0	2.5	/experiments/knapen_AOT/AOT_stimuli/rescaled_final/0165_fw.mp4	0.0	298.95097637176514	
44	211.08134722709656	fix_post	2		12	42.0	2.5	/experiments/knapen_AOT/AOT_stimuli/rescaled_final/0165_fw.mp4	0.0	299.0675973892212	0.10002899169921875
45	211.18137621879578	fix_pre	0		119	43.0	2.5	/experiments/knapen_AOT/AOT_stimuli/rescaled_final/1977_fw.mp4	0.0	299.1676263809204	0.991811990737915
45	212.1731882095337	movie	1		244	43.0	2.5	/experiments/knapen_AOT/AOT_stimuli/rescaled_final/1977_fw.mp4	0.0	300.1594383716583	2.5003929138183594
45	212.56521105766296	pulse	1	t		43.0	2.5	/experiments/knapen_AOT/AOT_stimuli/rescaled_final/1977_fw.mp4	0.0	300.5514612197876	
45	214.16536116600037	pulse	1	t		43.0	2.5	/experiments/knapen_AOT/AOT_stimuli/rescaled_final/1977_fw.mp4	0.0	302.151611328125	
45	214.67358112335205	fix_post	2		12	43.0	2.5	/experiments/knapen_AOT/AOT_stimuli/rescaled_final/1977_fw.mp4	0.0	302.6598312854767	0.09997892379760742
46	214.77356004714966	fix_pre	0		120	44.0	2.5	/experiments/knapen_AOT/AOT_stimuli/rescaled_final/0739_rv.mp4	0.0	302.7598102092743	1.0001740455627441
46	215.76559114456177	pulse	0	t		44.0	2.5	/experiments/knapen_AOT/AOT_stimuli/rescaled_final/0739_rv.mp4	0.0	303.7518413066864	
46	215.7737340927124	movie	1		242	44.0	2.5	/experiments/knapen_AOT/AOT_stimuli/rescaled_final/0739_rv.mp4	0.0	303.75998425483704	2.5087149143218994
46	217.36636304855347	pulse	1	t		44.0	2.5	/experiments/knapen_AOT/AOT_stimuli/rescaled_final/0739_rv.mp4	0.0	305.3526132106781	
46	218.2824490070343	fix_post	2		12	44.0	2.5	/experiments/knapen_AOT/AOT_stimuli/rescaled_final/0739_rv.mp4	0.0	306.26869916915894	0.10005617141723633
47	218.38250517845154	fix_pre	0		120	45.0	2.5	/experiments/knapen_AOT/AOT_stimuli/rescaled_final/0384_fw.mp4	0.0	306.3687553405762	1.0001299381256104
47	218.96612811088562	pulse	0	t		45.0	2.5	/experiments/knapen_AOT/AOT_stimuli/rescaled_final/0384_fw.mp4	0.0	306.95237827301025	
47	219.38263511657715	movie	1		243	45.0	2.5	/experiments/knapen_AOT/AOT_stimuli/rescaled_final/0384_fw.mp4	0.0	307.3688852787018	2.500335931777954
47	220.56642317771912	pulse	1	t		45.0	2.5	/experiments/knapen_AOT/AOT_stimuli/rescaled_final/0384_fw.mp4	0.0	308.55267333984375	
47	221.8829710483551	fix_post	2		12	45.0	2.5	/experiments/knapen_AOT/AOT_stimuli/rescaled_final/0384_fw.mp4	0.0	309.86922121047974	0.10003805160522461
48	221.98300909996033	fix_pre	0		120	46.0	2.5	/experiments/knapen_AOT/AOT_stimuli/rescaled_final/1792_rv.mp4	0.0	309.96925926208496	1.000119924545288
48	222.16654014587402	pulse	0	t		46.0	2.5	/experiments/knapen_AOT/AOT_stimuli/rescaled_final/1792_rv.mp4	0.0	310.15279030799866	
48	222.98312902450562	movie	1		244	46.0	2.5	/experiments/knapen_AOT/AOT_stimuli/rescaled_final/1792_rv.mp4	0.0	310.96937918663025	2.5004000663757324
48	223.76687502861023	pulse	1	t		46.0	2.5	/experiments/knapen_AOT/AOT_stimuli/rescaled_final/1792_rv.mp4	0.0	311.75312519073486	
48	225.36710000038147	pulse	1	t		46.0	2.5	/experiments/knapen_AOT/AOT_stimuli/rescaled_final/1792_rv.mp4	0.0	313.3533501625061	
48	225.48352909088135	fix_post	2		12	46.0	2.5	/experiments/knapen_AOT/AOT_stimuli/rescaled_final/1792_rv.mp4	0.0	313.469779253006	0.09999990463256836
49	225.58352899551392	fix_pre	0		120	47.0	2.5	/experiments/knapen_AOT/AOT_stimuli/rescaled_final/1982_rv.mp4	0.0	313.56977915763855	1.0001192092895508
49	226.58364820480347	movie	1		243	47.0	2.5	/experiments/knapen_AOT/AOT_stimuli/rescaled_final/1982_rv.mp4	0.0	314.5698983669281	2.492072820663452
49	226.97132110595703	pulse	1	t		47.0	2.5	/experiments/knapen_AOT/AOT_stimuli/rescaled_final/1982_rv.mp4	0.0	314.95757126808167	
49	228.5676200389862	pulse	1	t		47.0	2.5	/experiments/knapen_AOT/AOT_stimuli/rescaled_final/1982_rv.mp4	0.0	316.55387020111084	
49	229.07572102546692	fix_post	2		12	47.0	2.5	/experiments/knapen_AOT/AOT_stimuli/rescaled_final/1982_rv.mp4	0.0	317.06197118759155	0.10003519058227539
50	229.1757562160492	fix_pre	0		120	48.0	2.5	blank	1.0	317.1620063781738	1.0001089572906494
50	230.16774916648865	pulse	0	t		48.0	2.5	blank	1.0	318.1539993286133	
50	230.17586517333984	movie	1		301	48.0	2.5	blank	1.0	318.1621153354645	2.508718967437744
50	231.76805901527405	pulse	1	t		48.0	2.5	blank	1.0	319.7543091773987	
50	232.6845841407776	fix_post	2		12	48.0	2.5	blank	1.0	320.6708343029022	0.10007905960083008
51	232.78466320037842	fix_pre	0		120	49.0	2.5	/experiments/knapen_AOT/AOT_stimuli/rescaled_final/0567_fw.mp4	0.0	320.77091336250305	1.0001518726348877
51	233.3608160018921	pulse	0	t		49.0	2.5	/experiments/knapen_AOT/AOT_stimuli/rescaled_final/0567_fw.mp4	0.0	321.3470661640167	
51	233.7848150730133	movie	1		244	49.0	2.5	/experiments/knapen_AOT/AOT_stimuli/rescaled_final/0567_fw.mp4	0.0	321.77106523513794	2.500288963317871
51	234.96853113174438	pulse	1	t		49.0	2.5	/experiments/knapen_AOT/AOT_stimuli/rescaled_final/0567_fw.mp4	0.0	322.954781293869	
51	236.28510403633118	fix_post	2		12	49.0	2.5	/experiments/knapen_AOT/AOT_stimuli/rescaled_final/0567_fw.mp4	0.0	324.2713541984558	0.10002017021179199
52	236.38512420654297	fix_pre	0		120	50.0	2.5	/experiments/knapen_AOT/AOT_stimuli/rescaled_final/0300_fw.mp4	0.0	324.3713743686676	1.0001678466796875
52	236.5613660812378	pulse	0	t		50.0	2.5	/experiments/knapen_AOT/AOT_stimuli/rescaled_final/0300_fw.mp4	0.0	324.5476162433624	
52	237.38529205322266	movie	1		244	50.0	2.5	/experiments/knapen_AOT/AOT_stimuli/rescaled_final/0300_fw.mp4	0.0	325.3715422153473	2.5003600120544434
52	238.1615390777588	pulse	1	t		50.0	2.5	/experiments/knapen_AOT/AOT_stimuli/rescaled_final/0300_fw.mp4	0.0	326.1477892398834	
52	239.76920914649963	pulse	1	t		50.0	2.5	/experiments/knapen_AOT/AOT_stimuli/rescaled_final/0300_fw.mp4	0.0	327.75545930862427	
52	239.8856520652771	fix_post	2		12	50.0	2.5	/experiments/knapen_AOT/AOT_stimuli/rescaled_final/0300_fw.mp4	0.0	327.87190222740173	0.1000370979309082
53	239.985689163208	fix_pre	0		120	51.0	2.5	/experiments/knapen_AOT/AOT_stimuli/rescaled_final/1022_rv.mp4	0.0	327.97193932533264	1.0001380443572998
53	240.9858272075653	movie	1		243	51.0	2.5	/experiments/knapen_AOT/AOT_stimuli/rescaled_final/1022_rv.mp4	0.0	328.97207736968994	2.4920268058776855
53	241.36117100715637	pulse	1	t		51.0	2.5	/experiments/knapen_AOT/AOT_stimuli/rescaled_final/1022_rv.mp4	0.0	329.347421169281	
53	242.96141004562378	pulse	1	t		51.0	2.5	/experiments/knapen_AOT/AOT_stimuli/rescaled_final/1022_rv.mp4	0.0	330.9476602077484	
53	243.477854013443	fix_post	2		12	51.0	2.5	/experiments/knapen_AOT/AOT_stimuli/rescaled_final/1022_rv.mp4	0.0	331.4641041755676	0.10007810592651367
54	243.5779321193695	fix_pre	0		119	52.0	2.5	/experiments/knapen_AOT/AOT_stimuli/rescaled_final/0841_fw.mp4	0.0	331.56418228149414	0.9917399883270264
54	244.56155514717102	pulse	0	t		52.0	2.5	/experiments/knapen_AOT/AOT_stimuli/rescaled_final/0841_fw.mp4	0.0	332.54780530929565	
54	244.56967210769653	movie	1		248	52.0	2.5	/experiments/knapen_AOT/AOT_stimuli/rescaled_final/0841_fw.mp4	0.0	332.55592226982117	2.508742094039917
54	246.16621017456055	pulse	1	t		52.0	2.5	/experiments/knapen_AOT/AOT_stimuli/rescaled_final/0841_fw.mp4	0.0	334.1524603366852	
54	247.07841420173645	fix_post	2		12	52.0	2.5	/experiments/knapen_AOT/AOT_stimuli/rescaled_final/0841_fw.mp4	0.0	335.0646643638611	0.10002303123474121
55	247.1784372329712	fix_pre	0		120	53.0	2.5	/experiments/knapen_AOT/AOT_stimuli/rescaled_final/0633_fw.mp4	0.0	335.1646873950958	1.0001118183135986
55	247.76208305358887	pulse	0	t		53.0	2.5	/experiments/knapen_AOT/AOT_stimuli/rescaled_final/0633_fw.mp4	0.0	335.7483332157135	
55	248.1785490512848	movie	1		244	53.0	2.5	/experiments/knapen_AOT/AOT_stimuli/rescaled_final/0633_fw.mp4	0.0	336.1647992134094	2.500383138656616
55	249.36242818832397	pulse	1	t		53.0	2.5	/experiments/knapen_AOT/AOT_stimuli/rescaled_final/0633_fw.mp4	0.0	337.3486783504486	
55	250.6789321899414	fix_post	2		12	53.0	2.5	/experiments/knapen_AOT/AOT_stimuli/rescaled_final/0633_fw.mp4	0.0	338.66518235206604	0.0999908447265625
56	250.77892303466797	fix_pre	0		120	54.0	2.5	blank	1.0	338.7651731967926	1.000190019607544
56	250.96257209777832	pulse	0	t		54.0	2.5	blank	1.0	338.94882225990295	
56	251.7791130542755	movie	1		300	54.0	2.5	blank	1.0	339.76536321640015	2.500394105911255
56	252.56285405158997	pulse	1	t		54.0	2.5	blank	1.0	340.5491042137146	
56	254.16298508644104	pulse	1	t		54.0	2.5	blank	1.0	342.1492352485657	
56	254.27950716018677	fix_post	2		12	54.0	2.5	blank	1.0	342.2657573223114	0.10001301765441895
57	254.3795201778412	fix_pre	0		120	55.0	2.5	/experiments/knapen_AOT/AOT_stimuli/rescaled_final/0342_fw.mp4	0.0	342.3657703399658	1.0001189708709717
57	255.37963914871216	movie	1		243	55.0	2.5	/experiments/knapen_AOT/AOT_stimuli/rescaled_final/0342_fw.mp4	0.0	343.3658893108368	2.4920530319213867
57	255.7674171924591	pulse	1	t		55.0	2.5	/experiments/knapen_AOT/AOT_stimuli/rescaled_final/0342_fw.mp4	0.0	343.75366735458374	
57	257.36345410346985	pulse	1	t		55.0	2.5	/experiments/knapen_AOT/AOT_stimuli/rescaled_final/0342_fw.mp4	0.0	345.3497042655945	
57	257.87169218063354	fix_post	2		12	55.0	2.5	/experiments/knapen_AOT/AOT_stimuli/rescaled_final/0342_fw.mp4	0.0	345.8579423427582	0.09999489784240723
58	257.97168707847595	fix_pre	0		120	56.0	2.5	/experiments/knapen_AOT/AOT_stimuli/rescaled_final/1212_rv.mp4	0.0	345.9579372406006	1.0001640319824219
58	258.9638321399689	pulse	0	t		56.0	2.5	/experiments/knapen_AOT/AOT_stimuli/rescaled_final/1212_rv.mp4	0.0	346.9500823020935	
58	258.9718511104584	movie	1		244	56.0	2.5	/experiments/knapen_AOT/AOT_stimuli/rescaled_final/1212_rv.mp4	0.0	346.958101272583	2.508697986602783
58	260.56462502479553	pulse	1	t		56.0	2.5	/experiments/knapen_AOT/AOT_stimuli/rescaled_final/1212_rv.mp4	0.0	348.55087518692017	
58	261.48054909706116	fix_post	2		12	56.0	2.5	/experiments/knapen_AOT/AOT_stimuli/rescaled_final/1212_rv.mp4	0.0	349.4667992591858	0.10000300407409668
59	261.58055210113525	fix_pre	0		120	57.0	2.5	/experiments/knapen_AOT/AOT_stimuli/rescaled_final/1241_rv.mp4	0.0	349.5668022632599	1.0001630783081055
59	262.16422510147095	pulse	0	t		57.0	2.5	/experiments/knapen_AOT/AOT_stimuli/rescaled_final/1241_rv.mp4	0.0	350.1504752635956	
59	262.58071517944336	movie	1		244	57.0	2.5	/experiments/knapen_AOT/AOT_stimuli/rescaled_final/1241_rv.mp4	0.0	350.566965341568	2.5003929138183594
59	263.76450300216675	pulse	1	t		57.0	2.5	/experiments/knapen_AOT/AOT_stimuli/rescaled_final/1241_rv.mp4	0.0	351.7507531642914	
59	265.0811080932617	fix_post	2		12	57.0	2.5	/experiments/knapen_AOT/AOT_stimuli/rescaled_final/1241_rv.mp4	0.0	353.06735825538635	0.09999513626098633
60	265.1811032295227	fix_pre	0		120	58.0	2.5	/experiments/knapen_AOT/AOT_stimuli/rescaled_final/0082_fw.mp4	0.0	353.16735339164734	1.000154972076416
60	265.36471819877625	pulse	0	t		58.0	2.5	/experiments/knapen_AOT/AOT_stimuli/rescaled_final/0082_fw.mp4	0.0	353.3509683609009	
60	266.1812582015991	movie	1		244	58.0	2.5	/experiments/knapen_AOT/AOT_stimuli/rescaled_final/0082_fw.mp4	0.0	354.16750836372375	2.500372886657715
60	266.9649569988251	pulse	1	t		58.0	2.5	/experiments/knapen_AOT/AOT_stimuli/rescaled_final/0082_fw.mp4	0.0	354.9512071609497	
60	268.56556701660156	pulse	1	t		58.0	2.5	/experiments/knapen_AOT/AOT_stimuli/rescaled_final/0082_fw.mp4	0.0	356.5518171787262	
60	268.68163108825684	fix_post	2		12	58.0	2.5	/experiments/knapen_AOT/AOT_stimuli/rescaled_final/0082_fw.mp4	0.0	356.66788125038147	0.09999608993530273
61	268.78162717819214	fix_pre	0		120	59.0	2.5	/experiments/knapen_AOT/AOT_stimuli/rescaled_final/0120_rv.mp4	0.0	356.7678773403168	1.0001590251922607
61	269.7817862033844	movie	1		243	59.0	2.5	/experiments/knapen_AOT/AOT_stimuli/rescaled_final/0120_rv.mp4	0.0	357.76803636550903	2.492055892944336
61	270.1667392253876	pulse	1	t		59.0	2.5	/experiments/knapen_AOT/AOT_stimuli/rescaled_final/0120_rv.mp4	0.0	358.1529893875122	
61	271.7656490802765	pulse	1	t		59.0	2.5	/experiments/knapen_AOT/AOT_stimuli/rescaled_final/0120_rv.mp4	0.0	359.7518992424011	
61	272.27384209632874	fix_post	2		12	59.0	2.5	/experiments/knapen_AOT/AOT_stimuli/rescaled_final/0120_rv.mp4	0.0	360.26009225845337	0.09998011589050293
62	272.37382221221924	fix_pre	0		120	60.0	2.5	/experiments/knapen_AOT/AOT_stimuli/rescaled_final/0168_fw.mp4	0.0	360.3600723743439	1.0001718997955322
62	273.36584210395813	pulse	0	t		60.0	2.5	/experiments/knapen_AOT/AOT_stimuli/rescaled_final/0168_fw.mp4	0.0	361.35209226608276	
62	273.37399411201477	movie	1		244	60.0	2.5	/experiments/knapen_AOT/AOT_stimuli/rescaled_final/0168_fw.mp4	0.0	361.3602442741394	2.5087499618530273
62	274.97006821632385	pulse	1	t		60.0	2.5	/experiments/knapen_AOT/AOT_stimuli/rescaled_final/0168_fw.mp4	0.0	362.9563183784485	
62	275.8827440738678	fix_post	2		12	60.0	2.5	/experiments/knapen_AOT/AOT_stimuli/rescaled_final/0168_fw.mp4	0.0	363.86899423599243	0.10002303123474121
63	275.98276710510254	fix_pre	0		117	61.0	2.5	/experiments/knapen_AOT/AOT_stimuli/rescaled_final/1550_fw.mp4	0.0	363.9690172672272	1.0000979900360107
63	276.5663001537323	pulse	0	t		61.0	2.5	/experiments/knapen_AOT/AOT_stimuli/rescaled_final/1550_fw.mp4	0.0	364.55255031585693	
63	276.98286509513855	movie	1		245	61.0	2.5	/experiments/knapen_AOT/AOT_stimuli/rescaled_final/1550_fw.mp4	0.0	364.9691152572632	2.500437021255493
63	278.1624071598053	pulse	1	t		61.0	2.5	/experiments/knapen_AOT/AOT_stimuli/rescaled_final/1550_fw.mp4	0.0	366.14865732192993	
63	279.48330211639404	fix_post	2		12	61.0	2.5	/experiments/knapen_AOT/AOT_stimuli/rescaled_final/1550_fw.mp4	0.0	367.4695522785187	0.09995388984680176
64	279.58325600624084	fix_pre	0		120	62.0	2.5	/experiments/knapen_AOT/AOT_stimuli/rescaled_final/1819_rv.mp4	0.0	367.5695061683655	1.0001640319824219
64	279.7669072151184	pulse	0	t		62.0	2.5	/experiments/knapen_AOT/AOT_stimuli/rescaled_final/1819_rv.mp4	0.0	367.75315737724304	
64	280.58342003822327	movie	1		245	62.0	2.5	/experiments/knapen_AOT/AOT_stimuli/rescaled_final/1819_rv.mp4	0.0	368.5696702003479	2.5003721714019775
64	281.367121219635	pulse	1	t		62.0	2.5	/experiments/knapen_AOT/AOT_stimuli/rescaled_final/1819_rv.mp4	0.0	369.35337138175964	
64	282.96493315696716	pulse	1	t		62.0	2.5	/experiments/knapen_AOT/AOT_stimuli/rescaled_final/1819_rv.mp4	0.0	370.9511833190918	
64	283.08379220962524	fix_post	2		12	62.0	2.5	/experiments/knapen_AOT/AOT_stimuli/rescaled_final/1819_rv.mp4	0.0	371.0700423717499	0.09999990463256836
65	283.1837921142578	fix_pre	0		120	63.0	2.5	blank	1.0	371.17004227638245	1.00016188621521
65	284.183954000473	movie	1		299	63.0	2.5	blank	1.0	372.17020416259766	2.492037057876587
65	284.5675492286682	pulse	1	t		63.0	2.5	blank	1.0	372.55379939079285	
65	286.1678080558777	pulse	1	t		63.0	2.5	blank	1.0	374.1540582180023	
65	286.6759910583496	fix_post	2		12	63.0	2.5	blank	1.0	374.66224122047424	0.1000821590423584
66	286.77607321739197	fix_pre	0		120	64.0	2.5	/experiments/knapen_AOT/AOT_stimuli/rescaled_final/0355_fw.mp4	0.0	374.7623233795166	1.0000598430633545
66	287.76057720184326	pulse	0	t		64.0	2.5	/experiments/knapen_AOT/AOT_stimuli/rescaled_final/0355_fw.mp4	0.0	375.7468273639679	
66	287.7761330604553	movie	1		246	64.0	2.5	/experiments/knapen_AOT/AOT_stimuli/rescaled_final/0355_fw.mp4	0.0	375.76238322257996	2.508700132369995
66	289.36957120895386	pulse	1	t		64.0	2.5	/experiments/knapen_AOT/AOT_stimuli/rescaled_final/0355_fw.mp4	0.0	377.3558213710785	
66	290.2848331928253	fix_post	2		12	64.0	2.5	/experiments/knapen_AOT/AOT_stimuli/rescaled_final/0355_fw.mp4	0.0	378.27108335494995	0.10001301765441895
67	290.38484621047974	fix_pre	0		120	65.0	2.5	/experiments/knapen_AOT/AOT_stimuli/rescaled_final/1798_rv.mp4	0.0	378.37109637260437	1.0001709461212158
67	290.96104407310486	pulse	0	t		65.0	2.5	/experiments/knapen_AOT/AOT_stimuli/rescaled_final/1798_rv.mp4	0.0	378.9472942352295	
67	291.38501715660095	movie	1		243	65.0	2.5	/experiments/knapen_AOT/AOT_stimuli/rescaled_final/1798_rv.mp4	0.0	379.3712673187256	2.500351905822754
67	292.5609381198883	pulse	1	t		65.0	2.5	/experiments/knapen_AOT/AOT_stimuli/rescaled_final/1798_rv.mp4	0.0	380.54718828201294	
67	293.8853690624237	fix_post	2		12	65.0	2.5	/experiments/knapen_AOT/AOT_stimuli/rescaled_final/1798_rv.mp4	0.0	381.87161922454834	0.10009908676147461
68	293.9854681491852	fix_pre	0		120	66.0	2.5	/experiments/knapen_AOT/AOT_stimuli/rescaled_final/1478_rv.mp4	0.0	381.9717183113098	1.000093936920166
68	294.16074299812317	pulse	0	t		66.0	2.5	/experiments/knapen_AOT/AOT_stimuli/rescaled_final/1478_rv.mp4	0.0	382.1469931602478	
68	294.98556208610535	movie	1		245	66.0	2.5	/experiments/knapen_AOT/AOT_stimuli/rescaled_final/1478_rv.mp4	0.0	382.97181224823	2.5003840923309326
68	295.7608141899109	pulse	1	t		66.0	2.5	/experiments/knapen_AOT/AOT_stimuli/rescaled_final/1478_rv.mp4	0.0	383.7470643520355	
68	297.36108922958374	pulse	1	t		66.0	2.5	/experiments/knapen_AOT/AOT_stimuli/rescaled_final/1478_rv.mp4	0.0	385.3473393917084	
68	297.4859461784363	fix_post	2		12	66.0	2.5	/experiments/knapen_AOT/AOT_stimuli/rescaled_final/1478_rv.mp4	0.0	385.4721963405609	0.10004901885986328
69	297.58599519729614	fix_pre	0		120	67.0	2.5	/experiments/knapen_AOT/AOT_stimuli/rescaled_final/0041_fw.mp4	0.0	385.5722453594208	1.0001018047332764
69	298.5860970020294	movie	1		247	67.0	2.5	/experiments/knapen_AOT/AOT_stimuli/rescaled_final/0041_fw.mp4	0.0	386.57234716415405	2.4920310974121094
69	298.96132612228394	pulse	1	t		67.0	2.5	/experiments/knapen_AOT/AOT_stimuli/rescaled_final/0041_fw.mp4	0.0	386.94757628440857	
69	300.56163001060486	pulse	1	t		67.0	2.5	/experiments/knapen_AOT/AOT_stimuli/rescaled_final/0041_fw.mp4	0.0	388.5478801727295	
69	301.0781280994415	fix_post	2		12	67.0	2.5	/experiments/knapen_AOT/AOT_stimuli/rescaled_final/0041_fw.mp4	0.0	389.06437826156616	0.10001492500305176
70	301.1781430244446	fix_pre	0		119	68.0	2.5	/experiments/knapen_AOT/AOT_stimuli/rescaled_final/0341_rv.mp4	0.0	389.1643931865692	0.9918341636657715
70	302.1618731021881	pulse	0	t		68.0	2.5	/experiments/knapen_AOT/AOT_stimuli/rescaled_final/0341_rv.mp4	0.0	390.14812326431274	
70	302.16997718811035	movie	1		246	68.0	2.5	/experiments/knapen_AOT/AOT_stimuli/rescaled_final/0341_rv.mp4	0.0	390.156227350235	2.5087099075317383
70	303.7628061771393	pulse	1	t		68.0	2.5	/experiments/knapen_AOT/AOT_stimuli/rescaled_final/0341_rv.mp4	0.0	391.7490563392639	
70	304.6786870956421	fix_post	2		12	68.0	2.5	/experiments/knapen_AOT/AOT_stimuli/rescaled_final/0341_rv.mp4	0.0	392.6649372577667	0.10002708435058594
71	304.7787141799927	fix_pre	0		120	69.0	2.5	blank	1.0	392.7649643421173	1.0001139640808105
71	305.3623220920563	pulse	0	t		69.0	2.5	blank	1.0	393.3485722541809	
71	305.7788281440735	movie	1		300	69.0	2.5	blank	1.0	393.7650783061981	2.500396966934204
71	306.96247005462646	pulse	1	t		69.0	2.5	blank	1.0	394.9487202167511	
71	308.2792251110077	fix_post	2		12	69.0	2.5	blank	1.0	396.2654752731323	0.10001707077026367
72	308.37924218177795	fix_pre	0		120	70.0	2.5	/experiments/knapen_AOT/AOT_stimuli/rescaled_final/0985_rv.mp4	0.0	396.3654923439026	1.0001468658447266
72	308.5629620552063	pulse	0	t		70.0	2.5	/experiments/knapen_AOT/AOT_stimuli/rescaled_final/0985_rv.mp4	0.0	396.54921221733093	
72	309.3793890476227	movie	1		245	70.0	2.5	/experiments/knapen_AOT/AOT_stimuli/rescaled_final/0985_rv.mp4	0.0	397.3656392097473	2.500331163406372
72	310.163152217865	pulse	1	t		70.0	2.5	/experiments/knapen_AOT/AOT_stimuli/rescaled_final/0985_rv.mp4	0.0	398.1494023799896	
72	311.7607891559601	pulse	1	t		70.0	2.5	/experiments/knapen_AOT/AOT_stimuli/rescaled_final/0985_rv.mp4	0.0	399.7470393180847	
72	311.87972021102905	fix_post	2		12	70.0	2.5	/experiments/knapen_AOT/AOT_stimuli/rescaled_final/0985_rv.mp4	0.0	399.8659703731537	0.10002994537353516
73	311.9797501564026	fix_pre	0		120	71.0	2.5	/experiments/knapen_AOT/AOT_stimuli/rescaled_final/0899_fw.mp4	0.0	399.9660003185272	1.0001678466796875
73	312.9799180030823	movie	1		243	71.0	2.5	/experiments/knapen_AOT/AOT_stimuli/rescaled_final/0899_fw.mp4	0.0	400.9661681652069	2.492025136947632
73	313.3648030757904	pulse	1	t		71.0	2.5	/experiments/knapen_AOT/AOT_stimuli/rescaled_final/0899_fw.mp4	0.0	401.35105323791504	
73	314.9637141227722	pulse	1	t		71.0	2.5	/experiments/knapen_AOT/AOT_stimuli/rescaled_final/0899_fw.mp4	0.0	402.94996428489685	
73	315.4719431400299	fix_post	2		12	71.0	2.5	/experiments/knapen_AOT/AOT_stimuli/rescaled_final/0899_fw.mp4	0.0	403.45819330215454	0.10006403923034668
74	315.57200717926025	fix_pre	0		120	72.0	2.5	/experiments/knapen_AOT/AOT_stimuli/rescaled_final/0804_fw.mp4	0.0	403.5582573413849	1.0001118183135986
74	316.56410002708435	pulse	0	t		72.0	2.5	/experiments/knapen_AOT/AOT_stimuli/rescaled_final/0804_fw.mp4	0.0	404.550350189209	
74	316.57211899757385	movie	1		245	72.0	2.5	/experiments/knapen_AOT/AOT_stimuli/rescaled_final/0804_fw.mp4	0.0	404.5583691596985	2.508721113204956
74	318.1648061275482	pulse	1	t		72.0	2.5	/experiments/knapen_AOT/AOT_stimuli/rescaled_final/0804_fw.mp4	0.0	406.15105628967285	
74	319.0808401107788	fix_post	2		12	72.0	2.5	/experiments/knapen_AOT/AOT_stimuli/rescaled_final/0804_fw.mp4	0.0	407.06709027290344	0.09999299049377441
75	319.1808331012726	fix_pre	0		120	73.0	2.5	/experiments/knapen_AOT/AOT_stimuli/rescaled_final/1324_fw.mp4	0.0	407.1670832633972	1.0001659393310547
75	319.76440620422363	pulse	0	t		73.0	2.5	/experiments/knapen_AOT/AOT_stimuli/rescaled_final/1324_fw.mp4	0.0	407.75065636634827	
75	320.18099904060364	movie	1		244	73.0	2.5	/experiments/knapen_AOT/AOT_stimuli/rescaled_final/1324_fw.mp4	0.0	408.16724920272827	2.500387191772461
75	321.36474108695984	pulse	1	t		73.0	2.5	/experiments/knapen_AOT/AOT_stimuli/rescaled_final/1324_fw.mp4	0.0	409.3509912490845	
75	322.6813862323761	fix_post	2		12	73.0	2.5	/experiments/knapen_AOT/AOT_stimuli/rescaled_final/1324_fw.mp4	0.0	410.66763639450073	0.09998393058776855
76	322.78137016296387	fix_pre	0		120	74.0	2.5	/experiments/knapen_AOT/AOT_stimuli/rescaled_final/0864_fw.mp4	0.0	410.7676203250885	1.0001728534698486
76	322.9650959968567	pulse	0	t		74.0	2.5	/experiments/knapen_AOT/AOT_stimuli/rescaled_final/0864_fw.mp4	0.0	410.9513461589813	
76	323.7815430164337	movie	1		245	74.0	2.5	/experiments/knapen_AOT/AOT_stimuli/rescaled_final/0864_fw.mp4	0.0	411.76779317855835	2.5003411769866943
76	324.5652220249176	pulse	1	t		74.0	2.5	/experiments/knapen_AOT/AOT_stimuli/rescaled_final/0864_fw.mp4	0.0	412.55147218704224	
76	326.16308212280273	pulse	1	t		74.0	2.5	/experiments/knapen_AOT/AOT_stimuli/rescaled_final/0864_fw.mp4	0.0	414.14933228492737	
76	326.2818841934204	fix_post	2		12	74.0	2.5	/experiments/knapen_AOT/AOT_stimuli/rescaled_final/0864_fw.mp4	0.0	414.26813435554504	0.10001397132873535
77	326.38189816474915	fix_pre	0		120	75.0	2.5	/experiments/knapen_AOT/AOT_stimuli/rescaled_final/1956_rv.mp4	0.0	414.3681483268738	1.0002110004425049
77	327.38210916519165	movie	1		242	75.0	2.5	/experiments/knapen_AOT/AOT_stimuli/rescaled_final/1956_rv.mp4	0.0	415.3683593273163	2.491982936859131
77	327.7663061618805	pulse	1	t		75.0	2.5	/experiments/knapen_AOT/AOT_stimuli/rescaled_final/1956_rv.mp4	0.0	415.7525563240051	
77	329.3659460544586	pulse	1	t		75.0	2.5	/experiments/knapen_AOT/AOT_stimuli/rescaled_final/1956_rv.mp4	0.0	417.35219621658325	
77	329.8740921020508	fix_post	2		12	75.0	2.5	/experiments/knapen_AOT/AOT_stimuli/rescaled_final/1956_rv.mp4	0.0	417.8603422641754	0.1000211238861084
78	329.9741132259369	fix_pre	0		120	76.0	2.5	/experiments/knapen_AOT/AOT_stimuli/rescaled_final/1845_fw.mp4	0.0	417.9603633880615	1.0001158714294434
78	330.9662630558014	pulse	0	t		76.0	2.5	/experiments/knapen_AOT/AOT_stimuli/rescaled_final/1845_fw.mp4	0.0	418.952513217926	
78	330.97422909736633	movie	1		244	76.0	2.5	/experiments/knapen_AOT/AOT_stimuli/rescaled_final/1845_fw.mp4	0.0	418.96047925949097	2.508791923522949
78	332.56733107566833	pulse	1	t		76.0	2.5	/experiments/knapen_AOT/AOT_stimuli/rescaled_final/1845_fw.mp4	0.0	420.55358123779297	
78	333.4830210208893	fix_post	2		12	76.0	2.5	/experiments/knapen_AOT/AOT_stimuli/rescaled_final/1845_fw.mp4	0.0	421.4692711830139	0.09994697570800781
79	333.5829679965973	fix_pre	0		120	77.0	2.5	blank	1.0	421.5692181587219	1.0001721382141113
79	334.1665630340576	pulse	0	t		77.0	2.5	blank	1.0	422.15281319618225	
79	334.5831401348114	movie	1		300	77.0	2.5	blank	1.0	422.56939029693604	2.5003559589385986
79	335.76684308052063	pulse	1	t		77.0	2.5	blank	1.0	423.75309324264526	
79	337.08349609375	fix_post	2		12	77.0	2.5	blank	1.0	425.06974625587463	0.1000370979309082
80	337.1835331916809	fix_pre	0		118	78.0	2.5	/experiments/knapen_AOT/AOT_stimuli/rescaled_final/2162_rv.mp4	0.0	425.16978335380554	1.0001609325408936
80	337.36718916893005	pulse	0	t		78.0	2.5	/experiments/knapen_AOT/AOT_stimuli/rescaled_final/2162_rv.mp4	0.0	425.3534393310547	
80	338.1836941242218	movie	1		244	78.0	2.5	/experiments/knapen_AOT/AOT_stimuli/rescaled_final/2162_rv.mp4	0.0	426.16994428634644	2.5003550052642822
80	338.96737909317017	pulse	1	t		78.0	2.5	/experiments/knapen_AOT/AOT_stimuli/rescaled_final/2162_rv.mp4	0.0	426.9536292552948	
80	340.5678651332855	pulse	1	t		78.0	2.5	/experiments/knapen_AOT/AOT_stimuli/rescaled_final/2162_rv.mp4	0.0	428.55411529541016	
80	340.6840491294861	fix_post	2		12	78.0	2.5	/experiments/knapen_AOT/AOT_stimuli/rescaled_final/2162_rv.mp4	0.0	428.6702992916107	0.10003399848937988
81	340.78408312797546	fix_pre	0		120	79.0	2.5	/experiments/knapen_AOT/AOT_stimuli/rescaled_final/1109_fw.mp4	0.0	428.7703332901001	1.0001389980316162
81	341.7842221260071	movie	1		243	79.0	2.5	/experiments/knapen_AOT/AOT_stimuli/rescaled_final/1109_fw.mp4	0.0	429.7704722881317	2.5003418922424316
81	342.1683690547943	pulse	1	t		79.0	2.5	/experiments/knapen_AOT/AOT_stimuli/rescaled_final/1109_fw.mp4	0.0	430.15461921691895	
81	343.7607572078705	pulse	1	t		79.0	2.5	/experiments/knapen_AOT/AOT_stimuli/rescaled_final/1109_fw.mp4	0.0	431.7470073699951	
81	344.2845640182495	fix_post	2		12	79.0	2.5	/experiments/knapen_AOT/AOT_stimuli/rescaled_final/1109_fw.mp4	0.0	432.27081418037415	0.10004806518554688
82	344.38461208343506	fix_pre	0		119	80.0	2.5	/experiments/knapen_AOT/AOT_stimuli/rescaled_final/0380_fw.mp4	0.0	432.3708622455597	0.9917881488800049
82	345.36077213287354	pulse	0	t		80.0	2.5	/experiments/knapen_AOT/AOT_stimuli/rescaled_final/0380_fw.mp4	0.0	433.34702229499817	
82	345.37640023231506	movie	1		245	80.0	2.5	/experiments/knapen_AOT/AOT_stimuli/rescaled_final/0380_fw.mp4	0.0	433.3626503944397	2.5087239742279053
82	346.960351228714	pulse	1	t		80.0	2.5	/experiments/knapen_AOT/AOT_stimuli/rescaled_final/0380_fw.mp4	0.0	434.9466013908386	
82	347.88512420654297	fix_post	2		12	80.0	2.5	/experiments/knapen_AOT/AOT_stimuli/rescaled_final/0380_fw.mp4	0.0	435.8713743686676	0.10001301765441895
83	347.9851372241974	fix_pre	0		120	81.0	2.5	/experiments/knapen_AOT/AOT_stimuli/rescaled_final/0354_fw.mp4	0.0	435.971387386322	1.0001299381256104
83	348.5603520870209	pulse	0	t		81.0	2.5	/experiments/knapen_AOT/AOT_stimuli/rescaled_final/0354_fw.mp4	0.0	436.5466022491455	
83	348.985267162323	movie	1		244	81.0	2.5	/experiments/knapen_AOT/AOT_stimuli/rescaled_final/0354_fw.mp4	0.0	436.97151732444763	2.5003910064697266
83	350.16126012802124	pulse	1	t		81.0	2.5	/experiments/knapen_AOT/AOT_stimuli/rescaled_final/0354_fw.mp4	0.0	438.1475102901459	
83	351.4856581687927	fix_post	2		12	81.0	2.5	/experiments/knapen_AOT/AOT_stimuli/rescaled_final/0354_fw.mp4	0.0	439.47190833091736	0.09999203681945801
84	351.5856502056122	fix_pre	0		120	82.0	2.5	blank	1.0	439.5719003677368	1.000187873840332
84	351.76096415519714	pulse	0	t		82.0	2.5	blank	1.0	439.7472143173218	
84	352.5858380794525	movie	1		300	82.0	2.5	blank	1.0	440.57208824157715	2.500354051589966
84	353.361123085022	pulse	1	t		82.0	2.5	blank	1.0	441.3473732471466	
84	354.9614109992981	pulse	1	t		82.0	2.5	blank	1.0	442.94766116142273	
84	355.0861921310425	fix_post	2		12	82.0	2.5	blank	1.0	443.0724422931671	0.10000109672546387
85	355.18619322776794	fix_pre	0		119	83.0	2.5	/experiments/knapen_AOT/AOT_stimuli/rescaled_final/1734_rv.mp4	0.0	443.1724433898926	0.9918489456176758
85	356.1780421733856	movie	1		243	83.0	2.5	/experiments/knapen_AOT/AOT_stimuli/rescaled_final/1734_rv.mp4	0.0	444.16429233551025	2.500347852706909
85	356.56244111061096	pulse	1	t		83.0	2.5	/experiments/knapen_AOT/AOT_stimuli/rescaled_final/1734_rv.mp4	0.0	444.5486912727356	
85	358.1618402004242	pulse	1	t		83.0	2.5	/experiments/knapen_AOT/AOT_stimuli/rescaled_final/1734_rv.mp4	0.0	446.1480903625488	
85	358.67839002609253	fix_post	2		12	83.0	2.5	/experiments/knapen_AOT/AOT_stimuli/rescaled_final/1734_rv.mp4	0.0	446.66464018821716	0.10000014305114746
87	358.7783901691437	stim	0		1716					446.7646403312683	14.302274942398071
87	359.7622001171112	pulse	0	t						447.74845027923584	
87	361.3623411655426	pulse	0	t						449.34859132766724	
87	362.96255111694336	pulse	0	t						450.948801279068	
87	364.5628411769867	pulse	0	t						452.5490913391113	
87	366.1630530357361	pulse	0	t						454.1493031978607	
87	367.76326417922974	pulse	0	t						455.74951434135437	
87	369.36346220970154	pulse	0	t						457.3497123718262	
87	370.96384620666504	pulse	0	t						458.9500963687897	
87	372.5639932155609	pulse	0	t						460.55024337768555	
