trial_nr	onset	event_type	phase	response	nr_frames	movie_index	movie_duration	movie_file	blank	onset_abs	duration
0	0.18323993682861328	stim	0		15					18.590978860855103	0.12504816055297852
0	0.30041003227233887	response	0	space						18.708148956298828	
1	0.3082880973815918	stim	0		4602					18.71602702140808	38.36608600616455
1	38.664397954940796	pulse	0	t						57.072136878967285	
1	38.67437410354614	stim	1		1715					57.08211302757263	14.300151824951172
1	40.25611090660095	pulse	1	t						58.66384983062744	
1	41.856374979019165	pulse	1	t						60.264113903045654	
1	43.45652508735657	pulse	1	t						61.86426401138306	
1	45.05689597129822	pulse	1	t						63.46463489532471	
1	46.65706706047058	pulse	1	t						65.06480598449707	
1	48.25722098350525	pulse	1	t						66.66495990753174	
1	49.85743808746338	pulse	1	t						68.26517701148987	
1	51.457834005355835	pulse	1	t						69.86557292938232	
2	52.974525928497314	fix_pre	0		11	0.0	2.5	/experiments/knapen_AOT/AOT_stimuli/rescaled_final/1951_rv.mp4	0.0	71.3822648525238	0.10007309913635254
2	53.05804109573364	pulse	0	t		0.0	2.5	/experiments/knapen_AOT/AOT_stimuli/rescaled_final/1951_rv.mp4	0.0	71.46578001976013	
2	53.07459902763367	movie	1		241	0.0	2.5	/experiments/knapen_AOT/AOT_stimuli/rescaled_final/1951_rv.mp4	0.0	71.48233795166016	2.5003719329833984
2	54.659120082855225	pulse	1	t		0.0	2.5	/experiments/knapen_AOT/AOT_stimuli/rescaled_final/1951_rv.mp4	0.0	73.06685900688171	
2	55.574970960617065	fix_post	2		12	0.0	2.5	/experiments/knapen_AOT/AOT_stimuli/rescaled_final/1951_rv.mp4	0.0	73.98270988464355	0.09999299049377441
3	55.67496395111084	fix_pre	0		120	1.0	2.5	/experiments/knapen_AOT/AOT_stimuli/rescaled_final/1818_fw.mp4	0.0	74.08270287513733	1.0000550746917725
3	56.2584969997406	pulse	0	t		1.0	2.5	/experiments/knapen_AOT/AOT_stimuli/rescaled_final/1818_fw.mp4	0.0	74.66623592376709	
3	56.67501902580261	movie	1		242	1.0	2.5	/experiments/knapen_AOT/AOT_stimuli/rescaled_final/1818_fw.mp4	0.0	75.0827579498291	2.5004630088806152
3	57.85883092880249	pulse	1	t		1.0	2.5	/experiments/knapen_AOT/AOT_stimuli/rescaled_final/1818_fw.mp4	0.0	76.26656985282898	
3	59.17548203468323	fix_post	2		12	1.0	2.5	/experiments/knapen_AOT/AOT_stimuli/rescaled_final/1818_fw.mp4	0.0	77.58322095870972	0.09991002082824707
4	59.275392055511475	fix_pre	0		120	2.0	2.5	/experiments/knapen_AOT/AOT_stimuli/rescaled_final/0148_rv.mp4	0.0	77.68313097953796	1.0002758502960205
4	59.459022998809814	pulse	0	t		2.0	2.5	/experiments/knapen_AOT/AOT_stimuli/rescaled_final/0148_rv.mp4	0.0	77.8667619228363	
4	60.275667905807495	movie	1		243	2.0	2.5	/experiments/knapen_AOT/AOT_stimuli/rescaled_final/0148_rv.mp4	0.0	78.68340682983398	2.5003700256347656
4	61.05921506881714	pulse	1	t		2.0	2.5	/experiments/knapen_AOT/AOT_stimuli/rescaled_final/0148_rv.mp4	0.0	79.46695399284363	
4	62.65929293632507	pulse	1	t		2.0	2.5	/experiments/knapen_AOT/AOT_stimuli/rescaled_final/0148_rv.mp4	0.0	81.06703186035156	
4	62.77603793144226	fix_post	2		12	2.0	2.5	/experiments/knapen_AOT/AOT_stimuli/rescaled_final/0148_rv.mp4	0.0	81.18377685546875	0.09996795654296875
5	62.87600588798523	fix_pre	0		120	3.0	2.5	/experiments/knapen_AOT/AOT_stimuli/rescaled_final/1291_rv.mp4	0.0	81.28374481201172	1.000115156173706
5	63.876121044158936	movie	1		242	3.0	2.5	/experiments/knapen_AOT/AOT_stimuli/rescaled_final/1291_rv.mp4	0.0	82.28385996818542	2.4921538829803467
5	64.26103806495667	pulse	1	t		3.0	2.5	/experiments/knapen_AOT/AOT_stimuli/rescaled_final/1291_rv.mp4	0.0	82.66877698898315	
5	65.8599910736084	pulse	1	t		3.0	2.5	/experiments/knapen_AOT/AOT_stimuli/rescaled_final/1291_rv.mp4	0.0	84.26772999763489	
5	66.36827492713928	fix_post	2		12	3.0	2.5	/experiments/knapen_AOT/AOT_stimuli/rescaled_final/1291_rv.mp4	0.0	84.77601385116577	0.09990406036376953
6	66.46817898750305	fix_pre	0		120	4.0	2.5	/experiments/knapen_AOT/AOT_stimuli/rescaled_final/2178_rv.mp4	0.0	84.87591791152954	1.0001060962677002
6	67.460196018219	pulse	0	t		4.0	2.5	/experiments/knapen_AOT/AOT_stimuli/rescaled_final/2178_rv.mp4	0.0	85.86793494224548	
6	67.46828508377075	movie	1		243	4.0	2.5	/experiments/knapen_AOT/AOT_stimuli/rescaled_final/2178_rv.mp4	0.0	85.87602400779724	2.5087687969207764
6	69.06119990348816	pulse	1	t		4.0	2.5	/experiments/knapen_AOT/AOT_stimuli/rescaled_final/2178_rv.mp4	0.0	87.46893882751465	
6	69.97705388069153	fix_post	2		12	4.0	2.5	/experiments/knapen_AOT/AOT_stimuli/rescaled_final/2178_rv.mp4	0.0	88.38479280471802	0.09997820854187012
7	70.0770320892334	fix_pre	0		120	5.0	2.5	/experiments/knapen_AOT/AOT_stimuli/rescaled_final/2140_fw.mp4	0.0	88.48477101325989	1.0001699924468994
7	70.66058397293091	pulse	0	t		5.0	2.5	/experiments/knapen_AOT/AOT_stimuli/rescaled_final/2140_fw.mp4	0.0	89.0683228969574	
7	71.0772020816803	movie	1		242	5.0	2.5	/experiments/knapen_AOT/AOT_stimuli/rescaled_final/2140_fw.mp4	0.0	89.48494100570679	2.500520944595337
7	72.25670409202576	pulse	1	t		5.0	2.5	/experiments/knapen_AOT/AOT_stimuli/rescaled_final/2140_fw.mp4	0.0	90.66444301605225	
7	73.57772302627563	fix_post	2		12	5.0	2.5	/experiments/knapen_AOT/AOT_stimuli/rescaled_final/2140_fw.mp4	0.0	91.98546195030212	0.09985089302062988
8	73.67757391929626	fix_pre	0		120	6.0	2.5	/experiments/knapen_AOT/AOT_stimuli/rescaled_final/0149_fw.mp4	0.0	92.08531284332275	1.0001740455627441
8	73.85364508628845	pulse	0	t		6.0	2.5	/experiments/knapen_AOT/AOT_stimuli/rescaled_final/0149_fw.mp4	0.0	92.26138401031494	
8	74.67774796485901	movie	1		243	6.0	2.5	/experiments/knapen_AOT/AOT_stimuli/rescaled_final/0149_fw.mp4	0.0	93.0854868888855	2.500541925430298
8	75.4540479183197	pulse	1	t		6.0	2.5	/experiments/knapen_AOT/AOT_stimuli/rescaled_final/0149_fw.mp4	0.0	93.86178684234619	
8	77.06147599220276	pulse	1	t		6.0	2.5	/experiments/knapen_AOT/AOT_stimuli/rescaled_final/0149_fw.mp4	0.0	95.46921491622925	
8	77.1782898902893	fix_post	2		12	6.0	2.5	/experiments/knapen_AOT/AOT_stimuli/rescaled_final/0149_fw.mp4	0.0	95.5860288143158	0.0998530387878418
9	77.27814292907715	fix_pre	0		119	7.0	2.5	blank	1.0	95.68588185310364	0.9917869567871094
9	78.26992988586426	movie	1		300	7.0	2.5	blank	1.0	96.67766880989075	2.5003461837768555
9	78.65429592132568	pulse	1	t		7.0	2.5	blank	1.0	97.06203484535217	
9	80.25373601913452	pulse	1	t		7.0	2.5	blank	1.0	98.66147494316101	
9	80.77027606964111	fix_post	2		12	7.0	2.5	blank	1.0	99.1780149936676	0.0999908447265625
10	80.87026691436768	fix_pre	0		119	8.0	2.5	/experiments/knapen_AOT/AOT_stimuli/rescaled_final/1061_rv.mp4	0.0	99.27800583839417	0.9918851852416992
10	81.85393810272217	pulse	0	t		8.0	2.5	/experiments/knapen_AOT/AOT_stimuli/rescaled_final/1061_rv.mp4	0.0	100.26167702674866	
10	81.86215209960938	movie	1		244	8.0	2.5	/experiments/knapen_AOT/AOT_stimuli/rescaled_final/1061_rv.mp4	0.0	100.26989102363586	2.508788824081421
10	83.45550608634949	pulse	1	t		8.0	2.5	/experiments/knapen_AOT/AOT_stimuli/rescaled_final/1061_rv.mp4	0.0	101.86324501037598	
10	84.3709409236908	fix_post	2		12	8.0	2.5	/experiments/knapen_AOT/AOT_stimuli/rescaled_final/1061_rv.mp4	0.0	102.77867984771729	0.09993195533752441
11	84.47087287902832	fix_pre	0		120	9.0	2.5	/experiments/knapen_AOT/AOT_stimuli/rescaled_final/0630_fw.mp4	0.0	102.87861180305481	1.0001451969146729
11	85.05441689491272	pulse	0	t		9.0	2.5	/experiments/knapen_AOT/AOT_stimuli/rescaled_final/0630_fw.mp4	0.0	103.46215581893921	
11	85.471018075943	movie	1		243	9.0	2.5	/experiments/knapen_AOT/AOT_stimuli/rescaled_final/0630_fw.mp4	0.0	103.87875699996948	2.5003340244293213
11	86.65473103523254	pulse	1	t		9.0	2.5	/experiments/knapen_AOT/AOT_stimuli/rescaled_final/0630_fw.mp4	0.0	105.06246995925903	
11	87.97135210037231	fix_post	2		12	9.0	2.5	/experiments/knapen_AOT/AOT_stimuli/rescaled_final/0630_fw.mp4	0.0	106.3790910243988	0.10000491142272949
12	88.07135701179504	fix_pre	0		120	10.0	2.5	/experiments/knapen_AOT/AOT_stimuli/rescaled_final/0017_fw.mp4	0.0	106.47909593582153	1.0001308917999268
12	88.25488996505737	pulse	0	t		10.0	2.5	/experiments/knapen_AOT/AOT_stimuli/rescaled_final/0017_fw.mp4	0.0	106.66262888908386	
12	89.07148790359497	movie	1		244	10.0	2.5	/experiments/knapen_AOT/AOT_stimuli/rescaled_final/0017_fw.mp4	0.0	107.47922682762146	2.5004351139068604
12	89.85519695281982	pulse	1	t		10.0	2.5	/experiments/knapen_AOT/AOT_stimuli/rescaled_final/0017_fw.mp4	0.0	108.26293587684631	
12	91.45533204078674	pulse	1	t		10.0	2.5	/experiments/knapen_AOT/AOT_stimuli/rescaled_final/0017_fw.mp4	0.0	109.86307096481323	
12	91.57192301750183	fix_post	2		12	10.0	2.5	/experiments/knapen_AOT/AOT_stimuli/rescaled_final/0017_fw.mp4	0.0	109.97966194152832	0.10003399848937988
13	91.67195701599121	fix_pre	0		120	11.0	2.5	/experiments/knapen_AOT/AOT_stimuli/rescaled_final/1170_fw.mp4	0.0	110.0796959400177	1.0001170635223389
13	92.67207407951355	movie	1		241	11.0	2.5	/experiments/knapen_AOT/AOT_stimuli/rescaled_final/1170_fw.mp4	0.0	111.07981300354004	2.492136001586914
13	93.0562150478363	pulse	1	t		11.0	2.5	/experiments/knapen_AOT/AOT_stimuli/rescaled_final/1170_fw.mp4	0.0	111.4639539718628	
13	94.65601706504822	pulse	1	t		11.0	2.5	/experiments/knapen_AOT/AOT_stimuli/rescaled_final/1170_fw.mp4	0.0	113.0637559890747	
13	95.16421008110046	fix_post	2		12	11.0	2.5	/experiments/knapen_AOT/AOT_stimuli/rescaled_final/1170_fw.mp4	0.0	113.57194900512695	0.09993290901184082
14	95.2641429901123	fix_pre	0		120	12.0	2.5	/experiments/knapen_AOT/AOT_stimuli/rescaled_final/0592_fw.mp4	0.0	113.6718819141388	1.0001909732818604
14	96.25617790222168	pulse	0	t		12.0	2.5	/experiments/knapen_AOT/AOT_stimuli/rescaled_final/0592_fw.mp4	0.0	114.66391682624817	
14	96.26433396339417	movie	1		244	12.0	2.5	/experiments/knapen_AOT/AOT_stimuli/rescaled_final/0592_fw.mp4	0.0	114.67207288742065	2.5086469650268555
14	97.85685992240906	pulse	1	t		12.0	2.5	/experiments/knapen_AOT/AOT_stimuli/rescaled_final/0592_fw.mp4	0.0	116.26459884643555	
14	98.77298092842102	fix_post	2		9	12.0	2.5	/experiments/knapen_AOT/AOT_stimuli/rescaled_final/0592_fw.mp4	0.0	117.18071985244751	0.10002017021179199
15	98.87300109863281	fix_pre	0		120	13.0	2.5	/experiments/knapen_AOT/AOT_stimuli/rescaled_final/0068_rv.mp4	0.0	117.2807400226593	1.0001440048217773
15	99.4565839767456	pulse	0	t		13.0	2.5	/experiments/knapen_AOT/AOT_stimuli/rescaled_final/0068_rv.mp4	0.0	117.8643229007721	
15	99.87314510345459	movie	1		243	13.0	2.5	/experiments/knapen_AOT/AOT_stimuli/rescaled_final/0068_rv.mp4	0.0	118.28088402748108	2.5004379749298096
15	101.05689597129822	pulse	1	t		13.0	2.5	/experiments/knapen_AOT/AOT_stimuli/rescaled_final/0068_rv.mp4	0.0	119.4646348953247	
15	102.3735830783844	fix_post	2		12	13.0	2.5	/experiments/knapen_AOT/AOT_stimuli/rescaled_final/0068_rv.mp4	0.0	120.78132200241089	0.09993791580200195
16	102.4735209941864	fix_pre	0		120	14.0	2.5	blank	1.0	120.88125991821289	1.0001521110534668
16	102.65720391273499	pulse	0	t		14.0	2.5	blank	1.0	121.06494283676147	
16	103.47367310523987	movie	1		300	14.0	2.5	blank	1.0	121.88141202926636	2.5004189014434814
16	104.25730109214783	pulse	1	t		14.0	2.5	blank	1.0	122.66504001617432	
16	105.85759806632996	pulse	1	t		14.0	2.5	blank	1.0	124.26533699035645	
16	105.97409200668335	fix_post	2		12	14.0	2.5	blank	1.0	124.38183093070984	0.09999895095825195
17	106.0740909576416	fix_pre	0		120	15.0	2.5	/experiments/knapen_AOT/AOT_stimuli/rescaled_final/1237_rv.mp4	0.0	124.48182988166809	1.0001189708709717
17	107.07420992851257	movie	1		241	15.0	2.5	/experiments/knapen_AOT/AOT_stimuli/rescaled_final/1237_rv.mp4	0.0	125.48194885253906	2.4921419620513916
17	107.45894289016724	pulse	1	t		15.0	2.5	/experiments/knapen_AOT/AOT_stimuli/rescaled_final/1237_rv.mp4	0.0	125.86668181419373	
17	109.05801010131836	pulse	1	t		15.0	2.5	/experiments/knapen_AOT/AOT_stimuli/rescaled_final/1237_rv.mp4	0.0	127.46574902534485	
17	109.56635189056396	fix_post	2		12	15.0	2.5	/experiments/knapen_AOT/AOT_stimuli/rescaled_final/1237_rv.mp4	0.0	127.97409081459045	0.10002422332763672
18	109.6663761138916	fix_pre	0		120	16.0	2.5	/experiments/knapen_AOT/AOT_stimuli/rescaled_final/0015_fw.mp4	0.0	128.0741150379181	1.000006914138794
18	110.65839290618896	pulse	0	t		16.0	2.5	/experiments/knapen_AOT/AOT_stimuli/rescaled_final/0015_fw.mp4	0.0	129.06613183021545	
18	110.6663830280304	movie	1		244	16.0	2.5	/experiments/knapen_AOT/AOT_stimuli/rescaled_final/0015_fw.mp4	0.0	129.07412195205688	2.508859872817993
18	112.2589659690857	pulse	1	t		16.0	2.5	/experiments/knapen_AOT/AOT_stimuli/rescaled_final/0015_fw.mp4	0.0	130.66670489311218	
18	113.17524290084839	fix_post	2		12	16.0	2.5	/experiments/knapen_AOT/AOT_stimuli/rescaled_final/0015_fw.mp4	0.0	131.58298182487488	0.09995007514953613
19	113.27519297599792	fix_pre	0		120	17.0	2.5	/experiments/knapen_AOT/AOT_stimuli/rescaled_final/0008_rv.mp4	0.0	131.6829319000244	1.0001790523529053
19	113.85872507095337	pulse	0	t		17.0	2.5	/experiments/knapen_AOT/AOT_stimuli/rescaled_final/0008_rv.mp4	0.0	132.26646399497986	
19	114.27537202835083	movie	1		242	17.0	2.5	/experiments/knapen_AOT/AOT_stimuli/rescaled_final/0008_rv.mp4	0.0	132.68311095237732	2.500408887863159
19	115.45910501480103	pulse	1	t		17.0	2.5	/experiments/knapen_AOT/AOT_stimuli/rescaled_final/0008_rv.mp4	0.0	133.86684393882751	
19	116.77578091621399	fix_post	2		12	17.0	2.5	/experiments/knapen_AOT/AOT_stimuli/rescaled_final/0008_rv.mp4	0.0	135.18351984024048	0.09991598129272461
20	116.87569689750671	fix_pre	0		120	18.0	2.5	/experiments/knapen_AOT/AOT_stimuli/rescaled_final/0080_rv.mp4	0.0	135.2834358215332	1.0001161098480225
20	117.05932092666626	pulse	0	t		18.0	2.5	/experiments/knapen_AOT/AOT_stimuli/rescaled_final/0080_rv.mp4	0.0	135.46705985069275	
20	117.87581300735474	movie	1		243	18.0	2.5	/experiments/knapen_AOT/AOT_stimuli/rescaled_final/0080_rv.mp4	0.0	136.28355193138123	2.5006299018859863
20	118.65955710411072	pulse	1	t		18.0	2.5	/experiments/knapen_AOT/AOT_stimuli/rescaled_final/0080_rv.mp4	0.0	137.0672960281372	
20	120.25978589057922	pulse	1	t		18.0	2.5	/experiments/knapen_AOT/AOT_stimuli/rescaled_final/0080_rv.mp4	0.0	138.6675248146057	
20	120.37644290924072	fix_post	2		12	18.0	2.5	/experiments/knapen_AOT/AOT_stimuli/rescaled_final/0080_rv.mp4	0.0	138.7841818332672	0.09984016418457031
21	120.4762830734253	fix_pre	0		120	19.0	2.5	blank	1.0	138.88402199745178	1.0000908374786377
21	121.47637391090393	movie	1		299	19.0	2.5	blank	1.0	139.88411283493042	2.4920361042022705
21	121.860102891922	pulse	1	t		19.0	2.5	blank	1.0	140.2678418159485	
21	123.46017098426819	pulse	1	t		19.0	2.5	blank	1.0	141.86790990829468	
21	123.9684100151062	fix_post	2		12	19.0	2.5	blank	1.0	142.3761489391327	0.09999608993530273
22	124.0684061050415	fix_pre	0		120	20.0	2.5	/experiments/knapen_AOT/AOT_stimuli/rescaled_final/0025_fw.mp4	0.0	142.476145029068	1.0001699924468994
22	125.06036901473999	pulse	0	t		20.0	2.5	/experiments/knapen_AOT/AOT_stimuli/rescaled_final/0025_fw.mp4	0.0	143.46810793876648	
22	125.0685760974884	movie	1		244	20.0	2.5	/experiments/knapen_AOT/AOT_stimuli/rescaled_final/0025_fw.mp4	0.0	143.4763150215149	2.5087459087371826
22	126.6615219116211	pulse	1	t		20.0	2.5	/experiments/knapen_AOT/AOT_stimuli/rescaled_final/0025_fw.mp4	0.0	145.06926083564758	
22	127.57732200622559	fix_post	2		12	20.0	2.5	/experiments/knapen_AOT/AOT_stimuli/rescaled_final/0025_fw.mp4	0.0	145.98506093025208	0.10004210472106934
23	127.67736411094666	fix_pre	0		120	21.0	2.5	/experiments/knapen_AOT/AOT_stimuli/rescaled_final/0178_fw.mp4	0.0	146.08510303497314	1.0001299381256104
23	128.25334906578064	pulse	0	t		21.0	2.5	/experiments/knapen_AOT/AOT_stimuli/rescaled_final/0178_fw.mp4	0.0	146.66108798980713	
23	128.67749404907227	movie	1		243	21.0	2.5	/experiments/knapen_AOT/AOT_stimuli/rescaled_final/0178_fw.mp4	0.0	147.08523297309875	2.500308036804199
23	129.85334300994873	pulse	1	t		21.0	2.5	/experiments/knapen_AOT/AOT_stimuli/rescaled_final/0178_fw.mp4	0.0	148.26108193397522	
23	131.17780208587646	fix_post	2		12	21.0	2.5	/experiments/knapen_AOT/AOT_stimuli/rescaled_final/0178_fw.mp4	0.0	149.58554100990295	0.10005998611450195
24	131.27786207199097	fix_pre	0		120	22.0	2.5	/experiments/knapen_AOT/AOT_stimuli/rescaled_final/1671_rv.mp4	0.0	149.68560099601746	1.0001649856567383
24	131.45380091667175	pulse	0	t		22.0	2.5	/experiments/knapen_AOT/AOT_stimuli/rescaled_final/1671_rv.mp4	0.0	149.86153984069824	
24	132.2780270576477	movie	1		242	22.0	2.5	/experiments/knapen_AOT/AOT_stimuli/rescaled_final/1671_rv.mp4	0.0	150.6857659816742	2.5004689693450928
24	133.0533390045166	pulse	1	t		22.0	2.5	/experiments/knapen_AOT/AOT_stimuli/rescaled_final/1671_rv.mp4	0.0	151.4610779285431	
24	134.65344405174255	pulse	1	t		22.0	2.5	/experiments/knapen_AOT/AOT_stimuli/rescaled_final/1671_rv.mp4	0.0	153.06118297576904	
24	134.7784960269928	fix_post	2		12	22.0	2.5	/experiments/knapen_AOT/AOT_stimuli/rescaled_final/1671_rv.mp4	0.0	153.1862349510193	0.09987306594848633
25	134.87836909294128	fix_pre	0		120	23.0	2.5	/experiments/knapen_AOT/AOT_stimuli/rescaled_final/0555_fw.mp4	0.0	153.28610801696777	1.0002079010009766
25	135.87857699394226	movie	1		242	23.0	2.5	/experiments/knapen_AOT/AOT_stimuli/rescaled_final/0555_fw.mp4	0.0	154.28631591796875	2.492069959640503
25	136.25367403030396	pulse	1	t		23.0	2.5	/experiments/knapen_AOT/AOT_stimuli/rescaled_final/0555_fw.mp4	0.0	154.66141295433044	
25	137.85404300689697	pulse	1	t		23.0	2.5	/experiments/knapen_AOT/AOT_stimuli/rescaled_final/0555_fw.mp4	0.0	156.26178193092346	
25	138.37064695358276	fix_post	2		12	23.0	2.5	/experiments/knapen_AOT/AOT_stimuli/rescaled_final/0555_fw.mp4	0.0	156.77838587760925	0.0999150276184082
26	138.47056198120117	fix_pre	0		119	24.0	2.5	/experiments/knapen_AOT/AOT_stimuli/rescaled_final/0149_rv.mp4	0.0	156.87830090522766	0.991826057434082
26	139.45426201820374	pulse	0	t		24.0	2.5	/experiments/knapen_AOT/AOT_stimuli/rescaled_final/0149_rv.mp4	0.0	157.86200094223022	
26	139.46238803863525	movie	1		244	24.0	2.5	/experiments/knapen_AOT/AOT_stimuli/rescaled_final/0149_rv.mp4	0.0	157.87012696266174	2.5087759494781494
26	141.05499792099	pulse	1	t		24.0	2.5	/experiments/knapen_AOT/AOT_stimuli/rescaled_final/0149_rv.mp4	0.0	159.46273684501648	
26	141.9711639881134	fix_post	2		12	24.0	2.5	/experiments/knapen_AOT/AOT_stimuli/rescaled_final/0149_rv.mp4	0.0	160.3789029121399	0.09998393058776855
27	142.07114791870117	fix_pre	0		120	25.0	2.5	/experiments/knapen_AOT/AOT_stimuli/rescaled_final/1625_rv.mp4	0.0	160.47888684272766	1.0000901222229004
27	142.6547040939331	pulse	0	t		25.0	2.5	/experiments/knapen_AOT/AOT_stimuli/rescaled_final/1625_rv.mp4	0.0	161.0624430179596	
27	143.07123804092407	movie	1		243	25.0	2.5	/experiments/knapen_AOT/AOT_stimuli/rescaled_final/1625_rv.mp4	0.0	161.47897696495056	2.50042986869812
27	144.25493597984314	pulse	1	t		25.0	2.5	/experiments/knapen_AOT/AOT_stimuli/rescaled_final/1625_rv.mp4	0.0	162.66267490386963	
27	145.5716679096222	fix_post	2		12	25.0	2.5	/experiments/knapen_AOT/AOT_stimuli/rescaled_final/1625_rv.mp4	0.0	163.97940683364868	0.10003805160522461
28	145.67170596122742	fix_pre	0		120	26.0	2.5	/experiments/knapen_AOT/AOT_stimuli/rescaled_final/0003_rv.mp4	0.0	164.0794448852539	1.0000710487365723
28	145.85515809059143	pulse	0	t		26.0	2.5	/experiments/knapen_AOT/AOT_stimuli/rescaled_final/0003_rv.mp4	0.0	164.26289701461792	
28	146.671777009964	movie	1		243	26.0	2.5	/experiments/knapen_AOT/AOT_stimuli/rescaled_final/0003_rv.mp4	0.0	165.07951593399048	2.5004959106445312
28	147.45540499687195	pulse	1	t		26.0	2.5	/experiments/knapen_AOT/AOT_stimuli/rescaled_final/0003_rv.mp4	0.0	165.86314392089844	
28	149.05544304847717	pulse	1	t		26.0	2.5	/experiments/knapen_AOT/AOT_stimuli/rescaled_final/0003_rv.mp4	0.0	167.46318197250366	
28	149.17227292060852	fix_post	2		12	26.0	2.5	/experiments/knapen_AOT/AOT_stimuli/rescaled_final/0003_rv.mp4	0.0	167.580011844635	0.09988617897033691
29	149.27215909957886	fix_pre	0		119	27.0	2.5	/experiments/knapen_AOT/AOT_stimuli/rescaled_final/1221_rv.mp4	0.0	167.67989802360535	0.9918367862701416
29	150.263995885849	movie	1		242	27.0	2.5	/experiments/knapen_AOT/AOT_stimuli/rescaled_final/1221_rv.mp4	0.0	168.6717348098755	2.5004351139068604
29	150.6559669971466	pulse	1	t		27.0	2.5	/experiments/knapen_AOT/AOT_stimuli/rescaled_final/1221_rv.mp4	0.0	169.0637059211731	
29	152.2562210559845	pulse	1	t		27.0	2.5	/experiments/knapen_AOT/AOT_stimuli/rescaled_final/1221_rv.mp4	0.0	170.663959980011	
29	152.76443099975586	fix_post	2		12	27.0	2.5	/experiments/knapen_AOT/AOT_stimuli/rescaled_final/1221_rv.mp4	0.0	171.17216992378235	0.09993100166320801
30	152.86436200141907	fix_pre	0		120	28.0	2.5	blank	1.0	171.27210092544556	1.0001840591430664
30	153.8563690185547	pulse	0	t		28.0	2.5	blank	1.0	172.26410794258118	
30	153.86454606056213	movie	1		301	28.0	2.5	blank	1.0	172.27228498458862	2.5087239742279053
30	155.45654392242432	pulse	1	t		28.0	2.5	blank	1.0	173.8642828464508	
30	156.37327003479004	fix_post	2		12	28.0	2.5	blank	1.0	174.78100895881653	0.09996604919433594
31	156.47323608398438	fix_pre	0		120	29.0	2.5	/experiments/knapen_AOT/AOT_stimuli/rescaled_final/1716_fw.mp4	0.0	174.88097500801086	1.0001568794250488
31	157.0569291114807	pulse	0	t		29.0	2.5	/experiments/knapen_AOT/AOT_stimuli/rescaled_final/1716_fw.mp4	0.0	175.4646680355072	
31	157.47339296340942	movie	1		242	29.0	2.5	/experiments/knapen_AOT/AOT_stimuli/rescaled_final/1716_fw.mp4	0.0	175.8811318874359	2.5005669593811035
31	158.65724110603333	pulse	1	t		29.0	2.5	/experiments/knapen_AOT/AOT_stimuli/rescaled_final/1716_fw.mp4	0.0	177.06498003005981	
31	159.97395992279053	fix_post	2		12	29.0	2.5	/experiments/knapen_AOT/AOT_stimuli/rescaled_final/1716_fw.mp4	0.0	178.38169884681702	0.09985113143920898
32	160.07381105422974	fix_pre	0		120	30.0	2.5	/experiments/knapen_AOT/AOT_stimuli/rescaled_final/0003_fw.mp4	0.0	178.48154997825623	1.000166893005371
32	160.25730800628662	pulse	0	t		30.0	2.5	/experiments/knapen_AOT/AOT_stimuli/rescaled_final/0003_fw.mp4	0.0	178.6650469303131	
32	161.0739779472351	movie	1		242	30.0	2.5	/experiments/knapen_AOT/AOT_stimuli/rescaled_final/0003_fw.mp4	0.0	179.4817168712616	2.492150068283081
32	161.85751390457153	pulse	1	t		30.0	2.5	/experiments/knapen_AOT/AOT_stimuli/rescaled_final/0003_fw.mp4	0.0	180.26525282859802	
32	163.45739006996155	pulse	1	t		30.0	2.5	/experiments/knapen_AOT/AOT_stimuli/rescaled_final/0003_fw.mp4	0.0	181.86512899398804	
32	163.5661280155182	fix_post	2		13	30.0	2.5	/experiments/knapen_AOT/AOT_stimuli/rescaled_final/0003_fw.mp4	0.0	181.97386693954468	0.10819005966186523
33	163.67431807518005	fix_pre	0		119	31.0	2.5	/experiments/knapen_AOT/AOT_stimuli/rescaled_final/1896_rv.mp4	0.0	182.08205699920654	0.9918928146362305
33	164.66621088981628	movie	1		241	31.0	2.5	/experiments/knapen_AOT/AOT_stimuli/rescaled_final/1896_rv.mp4	0.0	183.07394981384277	2.5170931816101074
33	165.05808997154236	pulse	1	t		31.0	2.5	/experiments/knapen_AOT/AOT_stimuli/rescaled_final/1896_rv.mp4	0.0	183.46582889556885	
33	166.65832996368408	pulse	1	t		31.0	2.5	/experiments/knapen_AOT/AOT_stimuli/rescaled_final/1896_rv.mp4	0.0	185.06606888771057	
33	167.1833040714264	fix_post	2		10	31.0	2.5	/experiments/knapen_AOT/AOT_stimuli/rescaled_final/1896_rv.mp4	0.0	185.59104299545288	0.08321404457092285
34	167.26651811599731	fix_pre	0		120	32.0	2.5	/experiments/knapen_AOT/AOT_stimuli/rescaled_final/0656_rv.mp4	0.0	185.6742570400238	1.0002098083496094
34	168.2584159374237	pulse	0	t		32.0	2.5	/experiments/knapen_AOT/AOT_stimuli/rescaled_final/0656_rv.mp4	0.0	186.6661548614502	
34	168.26672792434692	movie	1		244	32.0	2.5	/experiments/knapen_AOT/AOT_stimuli/rescaled_final/0656_rv.mp4	0.0	186.6744668483734	2.508713960647583
34	169.86341905593872	pulse	1	t		32.0	2.5	/experiments/knapen_AOT/AOT_stimuli/rescaled_final/0656_rv.mp4	0.0	188.2711579799652	
34	170.7754418849945	fix_post	2		12	32.0	2.5	/experiments/knapen_AOT/AOT_stimuli/rescaled_final/0656_rv.mp4	0.0	189.183180809021	0.0999610424041748
35	170.87540292739868	fix_pre	0		120	33.0	2.5	/experiments/knapen_AOT/AOT_stimuli/rescaled_final/0015_rv.mp4	0.0	189.28314185142517	1.0002250671386719
35	171.4590790271759	pulse	0	t		33.0	2.5	/experiments/knapen_AOT/AOT_stimuli/rescaled_final/0015_rv.mp4	0.0	189.8668179512024	
35	171.87562799453735	movie	1		243	33.0	2.5	/experiments/knapen_AOT/AOT_stimuli/rescaled_final/0015_rv.mp4	0.0	190.28336691856384	2.500540018081665
35	173.05926895141602	pulse	1	t		33.0	2.5	/experiments/knapen_AOT/AOT_stimuli/rescaled_final/0015_rv.mp4	0.0	191.4670078754425	
35	174.37616801261902	fix_post	2		12	33.0	2.5	/experiments/knapen_AOT/AOT_stimuli/rescaled_final/0015_rv.mp4	0.0	192.7839069366455	0.09983992576599121
36	174.476007938385	fix_pre	0		120	34.0	2.5	/experiments/knapen_AOT/AOT_stimuli/rescaled_final/0312_fw.mp4	0.0	192.8837468624115	1.0000591278076172
36	174.65943789482117	pulse	0	t		34.0	2.5	/experiments/knapen_AOT/AOT_stimuli/rescaled_final/0312_fw.mp4	0.0	193.06717681884766	
36	175.47606706619263	movie	1		242	34.0	2.5	/experiments/knapen_AOT/AOT_stimuli/rescaled_final/0312_fw.mp4	0.0	193.88380599021912	2.5004830360412598
36	176.25968098640442	pulse	1	t		34.0	2.5	/experiments/knapen_AOT/AOT_stimuli/rescaled_final/0312_fw.mp4	0.0	194.6674199104309	
36	177.8602809906006	pulse	1	t		34.0	2.5	/experiments/knapen_AOT/AOT_stimuli/rescaled_final/0312_fw.mp4	0.0	196.26801991462708	
36	177.9765501022339	fix_post	2		11	34.0	2.5	/experiments/knapen_AOT/AOT_stimuli/rescaled_final/0312_fw.mp4	0.0	196.38428902626038	0.09166693687438965
37	178.06821703910828	fix_pre	0		120	35.0	2.5	blank	1.0	196.47595596313477	1.0001249313354492
37	179.06834197044373	movie	1		300	35.0	2.5	blank	1.0	197.47608089447021	2.500356912612915
37	179.46028399467468	pulse	1	t		35.0	2.5	blank	1.0	197.86802291870117	
37	181.06042504310608	pulse	1	t		35.0	2.5	blank	1.0	199.46816396713257	
37	181.56869888305664	fix_post	2		12	35.0	2.5	blank	1.0	199.97643780708313	0.1000370979309082
38	181.66873598098755	fix_pre	0		120	36.0	2.5	/experiments/knapen_AOT/AOT_stimuli/rescaled_final/0949_fw.mp4	0.0	200.07647490501404	1.0001471042633057
38	182.66058588027954	pulse	0	t		36.0	2.5	/experiments/knapen_AOT/AOT_stimuli/rescaled_final/0949_fw.mp4	0.0	201.06832480430603	
38	182.66888308525085	movie	1		244	36.0	2.5	/experiments/knapen_AOT/AOT_stimuli/rescaled_final/0949_fw.mp4	0.0	201.07662200927734	2.5087180137634277
38	184.2612500190735	pulse	1	t		36.0	2.5	/experiments/knapen_AOT/AOT_stimuli/rescaled_final/0949_fw.mp4	0.0	202.66898894309998	
38	185.17760109901428	fix_post	2		12	36.0	2.5	/experiments/knapen_AOT/AOT_stimuli/rescaled_final/0949_fw.mp4	0.0	203.58534002304077	0.1000359058380127
39	185.2776370048523	fix_pre	0		120	37.0	2.5	/experiments/knapen_AOT/AOT_stimuli/rescaled_final/1316_fw.mp4	0.0	203.68537592887878	1.0000441074371338
39	185.85301995277405	pulse	0	t		37.0	2.5	/experiments/knapen_AOT/AOT_stimuli/rescaled_final/1316_fw.mp4	0.0	204.26075887680054	
39	186.27768111228943	movie	1		242	37.0	2.5	/experiments/knapen_AOT/AOT_stimuli/rescaled_final/1316_fw.mp4	0.0	204.68542003631592	2.5006608963012695
39	187.45740699768066	pulse	1	t		37.0	2.5	/experiments/knapen_AOT/AOT_stimuli/rescaled_final/1316_fw.mp4	0.0	205.86514592170715	
39	188.7783420085907	fix_post	2		12	37.0	2.5	/experiments/knapen_AOT/AOT_stimuli/rescaled_final/1316_fw.mp4	0.0	207.1860809326172	0.09983587265014648
40	188.87817788124084	fix_pre	0		120	38.0	2.5	/experiments/knapen_AOT/AOT_stimuli/rescaled_final/1893_rv.mp4	0.0	207.28591680526733	1.0000720024108887
40	189.0532729625702	pulse	0	t		38.0	2.5	/experiments/knapen_AOT/AOT_stimuli/rescaled_final/1893_rv.mp4	0.0	207.46101188659668	
40	189.87824988365173	movie	1		242	38.0	2.5	/experiments/knapen_AOT/AOT_stimuli/rescaled_final/1893_rv.mp4	0.0	208.28598880767822	2.4921610355377197
40	190.65347504615784	pulse	1	t		38.0	2.5	/experiments/knapen_AOT/AOT_stimuli/rescaled_final/1893_rv.mp4	0.0	209.06121397018433	
40	192.25386810302734	pulse	1	t		38.0	2.5	/experiments/knapen_AOT/AOT_stimuli/rescaled_final/1893_rv.mp4	0.0	210.66160702705383	
40	192.37041091918945	fix_post	2		12	38.0	2.5	/experiments/knapen_AOT/AOT_stimuli/rescaled_final/1893_rv.mp4	0.0	210.77814984321594	0.0999150276184082
41	192.47032594680786	fix_pre	0		120	39.0	2.5	/experiments/knapen_AOT/AOT_stimuli/rescaled_final/0684_rv.mp4	0.0	210.87806487083435	1.0000841617584229
41	193.47041010856628	movie	1		243	39.0	2.5	/experiments/knapen_AOT/AOT_stimuli/rescaled_final/0684_rv.mp4	0.0	211.87814903259277	2.5006399154663086
41	193.85437488555908	pulse	1	t		39.0	2.5	/experiments/knapen_AOT/AOT_stimuli/rescaled_final/0684_rv.mp4	0.0	212.26211380958557	
41	195.4543159008026	pulse	1	t		39.0	2.5	/experiments/knapen_AOT/AOT_stimuli/rescaled_final/0684_rv.mp4	0.0	213.8620548248291	
41	195.9710500240326	fix_post	2		12	39.0	2.5	/experiments/knapen_AOT/AOT_stimuli/rescaled_final/0684_rv.mp4	0.0	214.37878894805908	0.09981298446655273
42	196.07086300849915	fix_pre	0		119	40.0	2.5	/experiments/knapen_AOT/AOT_stimuli/rescaled_final/0367_rv.mp4	0.0	214.47860193252563	0.991811990737915
42	197.05443596839905	pulse	0	t		40.0	2.5	/experiments/knapen_AOT/AOT_stimuli/rescaled_final/0367_rv.mp4	0.0	215.46217489242554	
42	197.06267499923706	movie	1		244	40.0	2.5	/experiments/knapen_AOT/AOT_stimuli/rescaled_final/0367_rv.mp4	0.0	215.47041392326355	2.508733034133911
42	198.65874004364014	pulse	1	t		40.0	2.5	/experiments/knapen_AOT/AOT_stimuli/rescaled_final/0367_rv.mp4	0.0	217.06647896766663	
42	199.57140803337097	fix_post	2		12	40.0	2.5	/experiments/knapen_AOT/AOT_stimuli/rescaled_final/0367_rv.mp4	0.0	217.97914695739746	0.09991598129272461
43	199.6713240146637	fix_pre	0		120	41.0	2.5	blank	1.0	218.07906293869019	1.000175952911377
43	200.2549319267273	pulse	0	t		41.0	2.5	blank	1.0	218.66267085075378	
43	200.67149996757507	movie	1		300	41.0	2.5	blank	1.0	219.07923889160156	2.50045108795166
43	201.85527205467224	pulse	1	t		41.0	2.5	blank	1.0	220.26301097869873	
43	203.17195105552673	fix_post	2		12	41.0	2.5	blank	1.0	221.57968997955322	0.09993791580200195
44	203.27188897132874	fix_pre	0		120	42.0	2.5	/experiments/knapen_AOT/AOT_stimuli/rescaled_final/0555_rv.mp4	0.0	221.67962789535522	1.0001509189605713
44	203.45549201965332	pulse	0	t		42.0	2.5	/experiments/knapen_AOT/AOT_stimuli/rescaled_final/0555_rv.mp4	0.0	221.8632309436798	
44	204.2720398902893	movie	1		242	42.0	2.5	/experiments/knapen_AOT/AOT_stimuli/rescaled_final/0555_rv.mp4	0.0	222.6797788143158	2.492288112640381
44	205.05563807487488	pulse	1	t		42.0	2.5	/experiments/knapen_AOT/AOT_stimuli/rescaled_final/0555_rv.mp4	0.0	223.46337699890137	
44	206.65569806098938	pulse	1	t		42.0	2.5	/experiments/knapen_AOT/AOT_stimuli/rescaled_final/0555_rv.mp4	0.0	225.06343698501587	
44	206.7643280029297	fix_post	2		13	42.0	2.5	/experiments/knapen_AOT/AOT_stimuli/rescaled_final/0555_rv.mp4	0.0	225.17206692695618	0.10809087753295898
45	206.87241888046265	fix_pre	0		119	43.0	2.5	/experiments/knapen_AOT/AOT_stimuli/rescaled_final/2157_fw.mp4	0.0	225.28015780448914	0.9918220043182373
45	207.86424088478088	movie	1		242	43.0	2.5	/experiments/knapen_AOT/AOT_stimuli/rescaled_final/2157_fw.mp4	0.0	226.27197980880737	2.5005311965942383
45	208.2562379837036	pulse	1	t		43.0	2.5	/experiments/knapen_AOT/AOT_stimuli/rescaled_final/2157_fw.mp4	0.0	226.6639769077301	
45	209.8564269542694	pulse	1	t		43.0	2.5	/experiments/knapen_AOT/AOT_stimuli/rescaled_final/2157_fw.mp4	0.0	228.2641658782959	
45	210.36477208137512	fix_post	2		12	43.0	2.5	/experiments/knapen_AOT/AOT_stimuli/rescaled_final/2157_fw.mp4	0.0	228.7725110054016	0.09992599487304688
46	210.46469807624817	fix_pre	0		120	44.0	2.5	/experiments/knapen_AOT/AOT_stimuli/rescaled_final/0069_fw.mp4	0.0	228.87243700027466	1.0001139640808105
46	211.45659399032593	pulse	0	t		44.0	2.5	/experiments/knapen_AOT/AOT_stimuli/rescaled_final/0069_fw.mp4	0.0	229.86433291435242	
46	211.46481204032898	movie	1		245	44.0	2.5	/experiments/knapen_AOT/AOT_stimuli/rescaled_final/0069_fw.mp4	0.0	229.87255096435547	2.508754014968872
46	213.05744409561157	pulse	1	t		44.0	2.5	/experiments/knapen_AOT/AOT_stimuli/rescaled_final/0069_fw.mp4	0.0	231.46518301963806	
46	213.97356605529785	fix_post	2		12	44.0	2.5	/experiments/knapen_AOT/AOT_stimuli/rescaled_final/0069_fw.mp4	0.0	232.38130497932434	0.09994387626647949
47	214.07350993156433	fix_pre	0		120	45.0	2.5	/experiments/knapen_AOT/AOT_stimuli/rescaled_final/0708_rv.mp4	0.0	232.48124885559082	1.0001699924468994
47	214.65708589553833	pulse	0	t		45.0	2.5	/experiments/knapen_AOT/AOT_stimuli/rescaled_final/0708_rv.mp4	0.0	233.06482481956482	
47	215.07367992401123	movie	1		243	45.0	2.5	/experiments/knapen_AOT/AOT_stimuli/rescaled_final/0708_rv.mp4	0.0	233.48141884803772	2.5004541873931885
47	216.25741004943848	pulse	1	t		45.0	2.5	/experiments/knapen_AOT/AOT_stimuli/rescaled_final/0708_rv.mp4	0.0	234.66514897346497	
47	217.57413411140442	fix_post	2		12	45.0	2.5	/experiments/knapen_AOT/AOT_stimuli/rescaled_final/0708_rv.mp4	0.0	235.9818730354309	0.09999489784240723
48	217.67412900924683	fix_pre	0		120	46.0	2.5	/experiments/knapen_AOT/AOT_stimuli/rescaled_final/1596_fw.mp4	0.0	236.08186793327332	1.0000550746917725
48	217.85752606391907	pulse	0	t		46.0	2.5	/experiments/knapen_AOT/AOT_stimuli/rescaled_final/1596_fw.mp4	0.0	236.26526498794556	
48	218.6741840839386	movie	1		243	46.0	2.5	/experiments/knapen_AOT/AOT_stimuli/rescaled_final/1596_fw.mp4	0.0	237.0819230079651	2.5005528926849365
48	219.45785403251648	pulse	1	t		46.0	2.5	/experiments/knapen_AOT/AOT_stimuli/rescaled_final/1596_fw.mp4	0.0	237.86559295654297	
48	221.0581591129303	pulse	1	t		46.0	2.5	/experiments/knapen_AOT/AOT_stimuli/rescaled_final/1596_fw.mp4	0.0	239.4658980369568	
48	221.17473697662354	fix_post	2		12	46.0	2.5	/experiments/knapen_AOT/AOT_stimuli/rescaled_final/1596_fw.mp4	0.0	239.58247590065002	0.09985113143920898
49	221.27458810806274	fix_pre	0		119	47.0	2.5	blank	1.0	239.68232703208923	0.9917929172515869
49	222.26638102531433	movie	1		300	47.0	2.5	blank	1.0	240.67411994934082	2.5004758834838867
49	222.65831995010376	pulse	1	t		47.0	2.5	blank	1.0	241.06605887413025	
49	224.25850892066956	pulse	1	t		47.0	2.5	blank	1.0	242.66624784469604	
49	224.76685690879822	fix_post	2		12	47.0	2.5	blank	1.0	243.1745958328247	0.099945068359375
50	224.8668019771576	fix_pre	0		120	48.0	2.5	/experiments/knapen_AOT/AOT_stimuli/rescaled_final/0563_rv.mp4	0.0	243.27454090118408	1.0001211166381836
50	225.85881900787354	pulse	0	t		48.0	2.5	/experiments/knapen_AOT/AOT_stimuli/rescaled_final/0563_rv.mp4	0.0	244.26655793190002	
50	225.86692309379578	movie	1		243	48.0	2.5	/experiments/knapen_AOT/AOT_stimuli/rescaled_final/0563_rv.mp4	0.0	244.27466201782227	2.5088248252868652
50	227.4632170200348	pulse	1	t		48.0	2.5	/experiments/knapen_AOT/AOT_stimuli/rescaled_final/0563_rv.mp4	0.0	245.87095594406128	
50	228.37574791908264	fix_post	2		12	48.0	2.5	/experiments/knapen_AOT/AOT_stimuli/rescaled_final/0563_rv.mp4	0.0	246.78348684310913	0.10000300407409668
51	228.47575092315674	fix_pre	0		120	49.0	2.5	/experiments/knapen_AOT/AOT_stimuli/rescaled_final/1316_rv.mp4	0.0	246.88348984718323	1.000089168548584
51	229.0591859817505	pulse	0	t		49.0	2.5	/experiments/knapen_AOT/AOT_stimuli/rescaled_final/1316_rv.mp4	0.0	247.46692490577698	
51	229.47584009170532	movie	1		242	49.0	2.5	/experiments/knapen_AOT/AOT_stimuli/rescaled_final/1316_rv.mp4	0.0	247.8835790157318	2.500501871109009
51	230.6595640182495	pulse	1	t		49.0	2.5	/experiments/knapen_AOT/AOT_stimuli/rescaled_final/1316_rv.mp4	0.0	249.067302942276	
51	231.97634196281433	fix_post	2		9	49.0	2.5	/experiments/knapen_AOT/AOT_stimuli/rescaled_final/1316_rv.mp4	0.0	250.38408088684082	0.09990406036376953
52	232.0762460231781	fix_pre	0		120	50.0	2.5	/experiments/knapen_AOT/AOT_stimuli/rescaled_final/1775_rv.mp4	0.0	250.4839849472046	1.0000879764556885
52	232.25978207588196	pulse	0	t		50.0	2.5	/experiments/knapen_AOT/AOT_stimuli/rescaled_final/1775_rv.mp4	0.0	250.66752099990845	
52	233.0763339996338	movie	1		242	50.0	2.5	/experiments/knapen_AOT/AOT_stimuli/rescaled_final/1775_rv.mp4	0.0	251.48407292366028	2.5006120204925537
52	233.86006999015808	pulse	1	t		50.0	2.5	/experiments/knapen_AOT/AOT_stimuli/rescaled_final/1775_rv.mp4	0.0	252.26780891418457	
52	235.46082592010498	pulse	1	t		50.0	2.5	/experiments/knapen_AOT/AOT_stimuli/rescaled_final/1775_rv.mp4	0.0	253.86856484413147	
52	235.57694602012634	fix_post	2		12	50.0	2.5	/experiments/knapen_AOT/AOT_stimuli/rescaled_final/1775_rv.mp4	0.0	253.98468494415283	0.09987902641296387
53	235.6768250465393	fix_pre	0		120	51.0	2.5	/experiments/knapen_AOT/AOT_stimuli/rescaled_final/0205_rv.mp4	0.0	254.0845639705658	1.0000548362731934
53	236.6768798828125	movie	1		243	51.0	2.5	/experiments/knapen_AOT/AOT_stimuli/rescaled_final/0205_rv.mp4	0.0	255.084618806839	2.4920601844787598
53	237.06112408638	pulse	1	t		51.0	2.5	/experiments/knapen_AOT/AOT_stimuli/rescaled_final/0205_rv.mp4	0.0	255.4688630104065	
53	238.6606640815735	pulse	1	t		51.0	2.5	/experiments/knapen_AOT/AOT_stimuli/rescaled_final/0205_rv.mp4	0.0	257.0684030056	
53	239.16894006729126	fix_post	2		12	51.0	2.5	/experiments/knapen_AOT/AOT_stimuli/rescaled_final/0205_rv.mp4	0.0	257.57667899131775	0.1000359058380127
54	239.26897597312927	fix_pre	0		120	52.0	2.5	/experiments/knapen_AOT/AOT_stimuli/rescaled_final/0367_fw.mp4	0.0	257.67671489715576	1.0001180171966553
54	240.26094102859497	pulse	0	t		52.0	2.5	/experiments/knapen_AOT/AOT_stimuli/rescaled_final/0367_fw.mp4	0.0	258.66867995262146	
54	240.26909399032593	movie	1		245	52.0	2.5	/experiments/knapen_AOT/AOT_stimuli/rescaled_final/0367_fw.mp4	0.0	258.6768329143524	2.5087180137634277
54	241.8617250919342	pulse	1	t		52.0	2.5	/experiments/knapen_AOT/AOT_stimuli/rescaled_final/0367_fw.mp4	0.0	260.2694640159607	
54	242.77781200408936	fix_post	2		12	52.0	2.5	/experiments/knapen_AOT/AOT_stimuli/rescaled_final/0367_fw.mp4	0.0	261.18555092811584	0.10003805160522461
55	242.87785005569458	fix_pre	0		120	53.0	2.5	/experiments/knapen_AOT/AOT_stimuli/rescaled_final/1618_fw.mp4	0.0	261.28558897972107	1.000079870223999
55	243.45391392707825	pulse	0	t		53.0	2.5	/experiments/knapen_AOT/AOT_stimuli/rescaled_final/1618_fw.mp4	0.0	261.86165285110474	
55	243.87792992591858	movie	1		246	53.0	2.5	/experiments/knapen_AOT/AOT_stimuli/rescaled_final/1618_fw.mp4	0.0	262.28566884994507	2.5004169940948486
55	245.05370807647705	pulse	1	t		53.0	2.5	/experiments/knapen_AOT/AOT_stimuli/rescaled_final/1618_fw.mp4	0.0	263.46144700050354	
55	246.37834692001343	fix_post	2		12	53.0	2.5	/experiments/knapen_AOT/AOT_stimuli/rescaled_final/1618_fw.mp4	0.0	264.7860858440399	0.10002613067626953
56	246.4783730506897	fix_pre	0		120	54.0	2.5	blank	1.0	264.8861119747162	1.000135898590088
56	246.65369701385498	pulse	0	t		54.0	2.5	blank	1.0	265.06143593788147	
56	247.47850894927979	movie	1		300	54.0	2.5	blank	1.0	265.8862478733063	2.500425100326538
56	248.25368809700012	pulse	1	t		54.0	2.5	blank	1.0	266.6614270210266	
56	249.8539741039276	pulse	1	t		54.0	2.5	blank	1.0	268.2617130279541	
56	249.97893404960632	fix_post	2		12	54.0	2.5	blank	1.0	268.3866729736328	0.09996986389160156
57	250.07890391349792	fix_pre	0		120	55.0	2.5	/experiments/knapen_AOT/AOT_stimuli/rescaled_final/1480_fw.mp4	0.0	268.4866428375244	1.0002200603485107
57	251.07912397384644	movie	1		241	55.0	2.5	/experiments/knapen_AOT/AOT_stimuli/rescaled_final/1480_fw.mp4	0.0	269.4868628978729	2.492136001586914
57	251.4543330669403	pulse	1	t		55.0	2.5	/experiments/knapen_AOT/AOT_stimuli/rescaled_final/1480_fw.mp4	0.0	269.8620719909668	
57	253.05454206466675	pulse	1	t		55.0	2.5	/experiments/knapen_AOT/AOT_stimuli/rescaled_final/1480_fw.mp4	0.0	271.46228098869324	
57	253.57125997543335	fix_post	2		12	55.0	2.5	/experiments/knapen_AOT/AOT_stimuli/rescaled_final/1480_fw.mp4	0.0	271.97899889945984	0.0998830795288086
58	253.67114305496216	fix_pre	0		119	56.0	2.5	/experiments/knapen_AOT/AOT_stimuli/rescaled_final/1418_fw.mp4	0.0	272.07888197898865	0.9917800426483154
58	254.65474796295166	pulse	0	t		56.0	2.5	/experiments/knapen_AOT/AOT_stimuli/rescaled_final/1418_fw.mp4	0.0	273.06248688697815	
58	254.66292309761047	movie	1		244	56.0	2.5	/experiments/knapen_AOT/AOT_stimuli/rescaled_final/1418_fw.mp4	0.0	273.07066202163696	2.5087788105010986
58	256.25543904304504	pulse	1	t		56.0	2.5	/experiments/knapen_AOT/AOT_stimuli/rescaled_final/1418_fw.mp4	0.0	274.66317796707153	
58	257.1717019081116	fix_post	2		12	56.0	2.5	/experiments/knapen_AOT/AOT_stimuli/rescaled_final/1418_fw.mp4	0.0	275.57944083213806	0.0999441146850586
59	257.27164602279663	fix_pre	0		120	57.0	2.5	/experiments/knapen_AOT/AOT_stimuli/rescaled_final/1603_rv.mp4	0.0	275.6793849468231	1.0001499652862549
59	257.85519790649414	pulse	0	t		57.0	2.5	/experiments/knapen_AOT/AOT_stimuli/rescaled_final/1603_rv.mp4	0.0	276.26293683052063	
59	258.2717959880829	movie	1		242	57.0	2.5	/experiments/knapen_AOT/AOT_stimuli/rescaled_final/1603_rv.mp4	0.0	276.6795349121094	2.500540018081665
59	259.45547008514404	pulse	1	t		57.0	2.5	/experiments/knapen_AOT/AOT_stimuli/rescaled_final/1603_rv.mp4	0.0	277.86320900917053	
59	260.77233600616455	fix_post	2		12	57.0	2.5	/experiments/knapen_AOT/AOT_stimuli/rescaled_final/1603_rv.mp4	0.0	279.18007493019104	0.09984588623046875
60	260.872181892395	fix_pre	0		120	58.0	2.5	/experiments/knapen_AOT/AOT_stimuli/rescaled_final/0568_fw.mp4	0.0	279.2799208164215	1.0001211166381836
60	261.0556321144104	pulse	0	t		58.0	2.5	/experiments/knapen_AOT/AOT_stimuli/rescaled_final/0568_fw.mp4	0.0	279.4633710384369	
60	261.8723030090332	movie	1		242	58.0	2.5	/experiments/knapen_AOT/AOT_stimuli/rescaled_final/0568_fw.mp4	0.0	280.2800419330597	2.50056791305542
60	262.65601801872253	pulse	1	t		58.0	2.5	/experiments/knapen_AOT/AOT_stimuli/rescaled_final/0568_fw.mp4	0.0	281.063756942749	
60	264.25665497779846	pulse	1	t		58.0	2.5	/experiments/knapen_AOT/AOT_stimuli/rescaled_final/0568_fw.mp4	0.0	282.66439390182495	
60	264.3728709220886	fix_post	2		12	58.0	2.5	/experiments/knapen_AOT/AOT_stimuli/rescaled_final/0568_fw.mp4	0.0	282.7806098461151	0.09983611106872559
61	264.47270703315735	fix_pre	0		120	59.0	2.5	/experiments/knapen_AOT/AOT_stimuli/rescaled_final/0701_rv.mp4	0.0	282.88044595718384	1.0001890659332275
61	265.4728960990906	movie	1		241	59.0	2.5	/experiments/knapen_AOT/AOT_stimuli/rescaled_final/0701_rv.mp4	0.0	283.88063502311707	2.492060899734497
61	265.85703206062317	pulse	1	t		59.0	2.5	/experiments/knapen_AOT/AOT_stimuli/rescaled_final/0701_rv.mp4	0.0	284.26477098464966	
61	267.45658111572266	pulse	1	t		59.0	2.5	/experiments/knapen_AOT/AOT_stimuli/rescaled_final/0701_rv.mp4	0.0	285.86432003974915	
61	267.9649569988251	fix_post	2		12	59.0	2.5	/experiments/knapen_AOT/AOT_stimuli/rescaled_final/0701_rv.mp4	0.0	286.37269592285156	0.09998488426208496
62	268.06494188308716	fix_pre	0		120	60.0	2.5	/experiments/knapen_AOT/AOT_stimuli/rescaled_final/1688_rv.mp4	0.0	286.47268080711365	1.0000932216644287
62	269.0568780899048	pulse	0	t		60.0	2.5	/experiments/knapen_AOT/AOT_stimuli/rescaled_final/1688_rv.mp4	0.0	287.4646170139313	
62	269.0650351047516	movie	1		244	60.0	2.5	/experiments/knapen_AOT/AOT_stimuli/rescaled_final/1688_rv.mp4	0.0	287.4727740287781	2.50874400138855
62	270.65753197669983	pulse	1	t		60.0	2.5	/experiments/knapen_AOT/AOT_stimuli/rescaled_final/1688_rv.mp4	0.0	289.0652709007263	
62	271.57377910614014	fix_post	2		12	60.0	2.5	/experiments/knapen_AOT/AOT_stimuli/rescaled_final/1688_rv.mp4	0.0	289.9815180301666	0.10003399848937988
63	271.6738131046295	fix_pre	0		120	61.0	2.5	/experiments/knapen_AOT/AOT_stimuli/rescaled_final/1008_rv.mp4	0.0	290.081552028656	1.000119924545288
63	272.2574028968811	pulse	0	t		61.0	2.5	/experiments/knapen_AOT/AOT_stimuli/rescaled_final/1008_rv.mp4	0.0	290.6651418209076	
63	272.6739330291748	movie	1		242	61.0	2.5	/experiments/knapen_AOT/AOT_stimuli/rescaled_final/1008_rv.mp4	0.0	291.0816719532013	2.500514030456543
63	273.85761189460754	pulse	1	t		61.0	2.5	/experiments/knapen_AOT/AOT_stimuli/rescaled_final/1008_rv.mp4	0.0	292.26535081863403	
63	275.17444705963135	fix_post	2		12	61.0	2.5	/experiments/knapen_AOT/AOT_stimuli/rescaled_final/1008_rv.mp4	0.0	293.58218598365784	0.0998539924621582
64	275.2743010520935	fix_pre	0		120	62.0	2.5	/experiments/knapen_AOT/AOT_stimuli/rescaled_final/1748_fw.mp4	0.0	293.68203997612	1.0001499652862549
64	275.4578320980072	pulse	0	t		62.0	2.5	/experiments/knapen_AOT/AOT_stimuli/rescaled_final/1748_fw.mp4	0.0	293.8655710220337	
64	276.27445101737976	movie	1		242	62.0	2.5	/experiments/knapen_AOT/AOT_stimuli/rescaled_final/1748_fw.mp4	0.0	294.68218994140625	2.500566005706787
64	277.05821204185486	pulse	1	t		62.0	2.5	/experiments/knapen_AOT/AOT_stimuli/rescaled_final/1748_fw.mp4	0.0	295.46595096588135	
64	278.658695936203	pulse	1	t		62.0	2.5	/experiments/knapen_AOT/AOT_stimuli/rescaled_final/1748_fw.mp4	0.0	297.0664348602295	
64	278.77501702308655	fix_post	2		12	62.0	2.5	/experiments/knapen_AOT/AOT_stimuli/rescaled_final/1748_fw.mp4	0.0	297.18275594711304	0.09987688064575195
65	278.8748939037323	fix_pre	0		120	63.0	2.5	blank	1.0	297.2826328277588	1.0001451969146729
65	279.875039100647	movie	1		299	63.0	2.5	blank	1.0	298.28277802467346	2.4920408725738525
65	280.2585070133209	pulse	1	t		63.0	2.5	blank	1.0	298.6662459373474	
65	281.85879397392273	pulse	1	t		63.0	2.5	blank	1.0	300.2665328979492	
65	282.3670799732208	fix_post	2		12	63.0	2.5	blank	1.0	300.7748188972473	0.10004997253417969
66	282.467129945755	fix_pre	0		120	64.0	2.5	/experiments/knapen_AOT/AOT_stimuli/rescaled_final/2157_rv.mp4	0.0	300.8748688697815	1.000133991241455
66	283.45903301239014	pulse	0	t		64.0	2.5	/experiments/knapen_AOT/AOT_stimuli/rescaled_final/2157_rv.mp4	0.0	301.8667719364166	
66	283.46726393699646	movie	1		243	64.0	2.5	/experiments/knapen_AOT/AOT_stimuli/rescaled_final/2157_rv.mp4	0.0	301.87500286102295	2.5086779594421387
66	285.05986189842224	pulse	1	t		64.0	2.5	/experiments/knapen_AOT/AOT_stimuli/rescaled_final/2157_rv.mp4	0.0	303.46760082244873	
66	285.9759418964386	fix_post	2		12	64.0	2.5	/experiments/knapen_AOT/AOT_stimuli/rescaled_final/2157_rv.mp4	0.0	304.3836808204651	0.10001111030578613
67	286.0759530067444	fix_pre	0		120	65.0	2.5	/experiments/knapen_AOT/AOT_stimuli/rescaled_final/0397_fw.mp4	0.0	304.4836919307709	1.0001349449157715
67	286.65947699546814	pulse	0	t		65.0	2.5	/experiments/knapen_AOT/AOT_stimuli/rescaled_final/0397_fw.mp4	0.0	305.06721591949463	
67	287.07608795166016	movie	1		243	65.0	2.5	/experiments/knapen_AOT/AOT_stimuli/rescaled_final/0397_fw.mp4	0.0	305.48382687568665	2.500437021255493
67	288.25977301597595	pulse	1	t		65.0	2.5	/experiments/knapen_AOT/AOT_stimuli/rescaled_final/0397_fw.mp4	0.0	306.66751194000244	
67	289.57652497291565	fix_post	2		12	65.0	2.5	/experiments/knapen_AOT/AOT_stimuli/rescaled_final/0397_fw.mp4	0.0	307.98426389694214	0.09990811347961426
68	289.67643308639526	fix_pre	0		120	66.0	2.5	/experiments/knapen_AOT/AOT_stimuli/rescaled_final/2000_rv.mp4	0.0	308.08417201042175	1.0001869201660156
68	289.85999488830566	pulse	0	t		66.0	2.5	/experiments/knapen_AOT/AOT_stimuli/rescaled_final/2000_rv.mp4	0.0	308.26773381233215	
68	290.6766200065613	movie	1		242	66.0	2.5	/experiments/knapen_AOT/AOT_stimuli/rescaled_final/2000_rv.mp4	0.0	309.08435893058777	2.500627040863037
68	291.4603900909424	pulse	1	t		66.0	2.5	/experiments/knapen_AOT/AOT_stimuli/rescaled_final/2000_rv.mp4	0.0	309.8681290149689	
68	293.0604450702667	pulse	1	t		66.0	2.5	/experiments/knapen_AOT/AOT_stimuli/rescaled_final/2000_rv.mp4	0.0	311.4681839942932	
68	293.1772470474243	fix_post	2		12	66.0	2.5	/experiments/knapen_AOT/AOT_stimuli/rescaled_final/2000_rv.mp4	0.0	311.5849859714508	0.09984183311462402
69	293.27708888053894	fix_pre	0		120	67.0	2.5	/experiments/knapen_AOT/AOT_stimuli/rescaled_final/0949_rv.mp4	0.0	311.68482780456543	1.0000932216644287
69	294.27718210220337	movie	1		242	67.0	2.5	/experiments/knapen_AOT/AOT_stimuli/rescaled_final/0949_rv.mp4	0.0	312.68492102622986	2.4922068119049072
69	294.66203594207764	pulse	1	t		67.0	2.5	/experiments/knapen_AOT/AOT_stimuli/rescaled_final/0949_rv.mp4	0.0	313.0697748661041	
69	296.25357699394226	pulse	1	t		67.0	2.5	/experiments/knapen_AOT/AOT_stimuli/rescaled_final/0949_rv.mp4	0.0	314.66131591796875	
69	296.7693889141083	fix_post	2		12	67.0	2.5	/experiments/knapen_AOT/AOT_stimuli/rescaled_final/0949_rv.mp4	0.0	315.17712783813477	0.09984517097473145
70	296.869234085083	fix_pre	0		120	68.0	2.5	/experiments/knapen_AOT/AOT_stimuli/rescaled_final/0195_fw.mp4	0.0	315.2769730091095	1.0001089572906494
70	297.8536159992218	pulse	0	t		68.0	2.5	/experiments/knapen_AOT/AOT_stimuli/rescaled_final/0195_fw.mp4	0.0	316.2613549232483	
70	297.86934304237366	movie	1		242	68.0	2.5	/experiments/knapen_AOT/AOT_stimuli/rescaled_final/0195_fw.mp4	0.0	316.27708196640015	2.5311360359191895
70	299.46577191352844	pulse	1	t		68.0	2.5	/experiments/knapen_AOT/AOT_stimuli/rescaled_final/0195_fw.mp4	0.0	317.87351083755493	
70	300.40047907829285	fix_post	2		9	68.0	2.5	/experiments/knapen_AOT/AOT_stimuli/rescaled_final/0195_fw.mp4	0.0	318.80821800231934	0.07763886451721191
71	300.47811794281006	fix_pre	0		120	69.0	2.5	/experiments/knapen_AOT/AOT_stimuli/rescaled_final/2018_fw.mp4	0.0	318.88585686683655	1.0001070499420166
71	301.0533080101013	pulse	0	t		69.0	2.5	/experiments/knapen_AOT/AOT_stimuli/rescaled_final/2018_fw.mp4	0.0	319.4610469341278	
71	301.4782249927521	movie	1		243	69.0	2.5	/experiments/knapen_AOT/AOT_stimuli/rescaled_final/2018_fw.mp4	0.0	319.88596391677856	2.5004959106445312
71	302.65498304367065	pulse	1	t		69.0	2.5	/experiments/knapen_AOT/AOT_stimuli/rescaled_final/2018_fw.mp4	0.0	321.06272196769714	
71	303.9787209033966	fix_post	2		12	69.0	2.5	/experiments/knapen_AOT/AOT_stimuli/rescaled_final/2018_fw.mp4	0.0	322.3864598274231	0.0999600887298584
72	304.07868099212646	fix_pre	0		120	70.0	2.5	blank	1.0	322.48641991615295	1.0000889301300049
72	304.2537269592285	pulse	0	t		70.0	2.5	blank	1.0	322.661465883255	
72	305.07876992225647	movie	1		300	70.0	2.5	blank	1.0	323.48650884628296	2.5003581047058105
72	305.8539729118347	pulse	1	t		70.0	2.5	blank	1.0	324.2617118358612	
72	307.4542670249939	pulse	1	t		70.0	2.5	blank	1.0	325.8620059490204	
72	307.5791280269623	fix_post	2		12	70.0	2.5	blank	1.0	325.98686695098877	0.10006189346313477
73	307.6791899204254	fix_pre	0		119	71.0	2.5	/experiments/knapen_AOT/AOT_stimuli/rescaled_final/1480_rv.mp4	0.0	326.0869288444519	0.9917430877685547
73	308.67093300819397	movie	1		243	71.0	2.5	/experiments/knapen_AOT/AOT_stimuli/rescaled_final/1480_rv.mp4	0.0	327.07867193222046	2.5004000663757324
73	309.0565049648285	pulse	1	t		71.0	2.5	/experiments/knapen_AOT/AOT_stimuli/rescaled_final/1480_rv.mp4	0.0	327.464243888855	
73	310.6547300815582	pulse	1	t		71.0	2.5	/experiments/knapen_AOT/AOT_stimuli/rescaled_final/1480_rv.mp4	0.0	329.0624690055847	
73	311.1713330745697	fix_post	2		12	71.0	2.5	/experiments/knapen_AOT/AOT_stimuli/rescaled_final/1480_rv.mp4	0.0	329.5790719985962	0.10001587867736816
74	311.27134895324707	fix_pre	0		119	72.0	2.5	/experiments/knapen_AOT/AOT_stimuli/rescaled_final/0735_fw.mp4	0.0	329.67908787727356	0.9918620586395264
74	312.2549641132355	pulse	0	t		72.0	2.5	/experiments/knapen_AOT/AOT_stimuli/rescaled_final/0735_fw.mp4	0.0	330.66270303726196	
74	312.2632110118866	movie	1		246	72.0	2.5	/experiments/knapen_AOT/AOT_stimuli/rescaled_final/0735_fw.mp4	0.0	330.6709499359131	2.5086910724639893
74	313.85579109191895	pulse	1	t		72.0	2.5	/experiments/knapen_AOT/AOT_stimuli/rescaled_final/0735_fw.mp4	0.0	332.26353001594543	
74	314.7719020843506	fix_post	2		12	72.0	2.5	/experiments/knapen_AOT/AOT_stimuli/rescaled_final/0735_fw.mp4	0.0	333.1796410083771	0.09997892379760742
75	314.8718810081482	fix_pre	0		120	73.0	2.5	/experiments/knapen_AOT/AOT_stimuli/rescaled_final/1671_rv.mp4	0.0	333.2796199321747	1.0001709461212158
75	315.45546889305115	pulse	0	t		73.0	2.5	/experiments/knapen_AOT/AOT_stimuli/rescaled_final/1671_rv.mp4	0.0	333.86320781707764	
75	315.8720519542694	movie	1		242	73.0	2.5	/experiments/knapen_AOT/AOT_stimuli/rescaled_final/1671_rv.mp4	0.0	334.2797908782959	2.5003509521484375
75	317.05583691596985	pulse	1	t		73.0	2.5	/experiments/knapen_AOT/AOT_stimuli/rescaled_final/1671_rv.mp4	0.0	335.46357583999634	
75	318.37240290641785	fix_post	2		12	73.0	2.5	/experiments/knapen_AOT/AOT_stimuli/rescaled_final/1671_rv.mp4	0.0	336.78014183044434	0.10001611709594727
76	318.4724190235138	fix_pre	0		120	74.0	2.5	/experiments/knapen_AOT/AOT_stimuli/rescaled_final/1220_fw.mp4	0.0	336.8801579475403	1.000196933746338
76	318.6559989452362	pulse	0	t		74.0	2.5	/experiments/knapen_AOT/AOT_stimuli/rescaled_final/1220_fw.mp4	0.0	337.0637378692627	
76	319.47261595726013	movie	1		242	74.0	2.5	/experiments/knapen_AOT/AOT_stimuli/rescaled_final/1220_fw.mp4	0.0	337.8803548812866	2.5004689693450928
76	320.25618505477905	pulse	1	t		74.0	2.5	/experiments/knapen_AOT/AOT_stimuli/rescaled_final/1220_fw.mp4	0.0	338.66392397880554	
76	321.8565399646759	pulse	1	t		74.0	2.5	/experiments/knapen_AOT/AOT_stimuli/rescaled_final/1220_fw.mp4	0.0	340.2642788887024	
76	321.9730849266052	fix_post	2		12	74.0	2.5	/experiments/knapen_AOT/AOT_stimuli/rescaled_final/1220_fw.mp4	0.0	340.3808238506317	0.09987115859985352
77	322.0729560852051	fix_pre	0		120	75.0	2.5	/experiments/knapen_AOT/AOT_stimuli/rescaled_final/0459_fw.mp4	0.0	340.48069500923157	1.000147819519043
77	323.0731039047241	movie	1		242	75.0	2.5	/experiments/knapen_AOT/AOT_stimuli/rescaled_final/0459_fw.mp4	0.0	341.4808428287506	2.4921741485595703
77	323.45720911026	pulse	1	t		75.0	2.5	/experiments/knapen_AOT/AOT_stimuli/rescaled_final/0459_fw.mp4	0.0	341.8649480342865	
77	325.05697298049927	pulse	1	t		75.0	2.5	/experiments/knapen_AOT/AOT_stimuli/rescaled_final/0459_fw.mp4	0.0	343.46471190452576	
77	325.5652780532837	fix_post	2		12	75.0	2.5	/experiments/knapen_AOT/AOT_stimuli/rescaled_final/0459_fw.mp4	0.0	343.9730169773102	0.09990286827087402
78	325.66518092155457	fix_pre	0		120	76.0	2.5	/experiments/knapen_AOT/AOT_stimuli/rescaled_final/0837_rv.mp4	0.0	344.07291984558105	1.0001180171966553
78	326.6571750640869	pulse	0	t		76.0	2.5	/experiments/knapen_AOT/AOT_stimuli/rescaled_final/0837_rv.mp4	0.0	345.0649139881134	
78	326.6652989387512	movie	1		243	76.0	2.5	/experiments/knapen_AOT/AOT_stimuli/rescaled_final/0837_rv.mp4	0.0	345.0730378627777	2.5088350772857666
78	328.2579278945923	pulse	1	t		76.0	2.5	/experiments/knapen_AOT/AOT_stimuli/rescaled_final/0837_rv.mp4	0.0	346.6656668186188	
78	329.174134016037	fix_post	2		12	76.0	2.5	/experiments/knapen_AOT/AOT_stimuli/rescaled_final/0837_rv.mp4	0.0	347.5818729400635	0.09995198249816895
79	329.27408599853516	fix_pre	0		120	77.0	2.5	blank	1.0	347.68182492256165	1.0001170635223389
79	329.85768008232117	pulse	0	t		77.0	2.5	blank	1.0	348.26541900634766	
79	330.2742030620575	movie	1		300	77.0	2.5	blank	1.0	348.681941986084	2.500370979309082
79	331.4579620361328	pulse	1	t		77.0	2.5	blank	1.0	349.8657009601593	
79	332.7745740413666	fix_post	2		12	77.0	2.5	blank	1.0	351.18231296539307	0.10005688667297363
80	332.87463092803955	fix_pre	0		120	78.0	2.5	/experiments/knapen_AOT/AOT_stimuli/rescaled_final/0701_fw.mp4	0.0	351.28236985206604	1.0000691413879395
80	333.05814909935	pulse	0	t		78.0	2.5	/experiments/knapen_AOT/AOT_stimuli/rescaled_final/0701_fw.mp4	0.0	351.46588802337646	
80	333.8747000694275	movie	1		242	78.0	2.5	/experiments/knapen_AOT/AOT_stimuli/rescaled_final/0701_fw.mp4	0.0	352.282438993454	2.500563859939575
80	334.658301115036	pulse	1	t		78.0	2.5	/experiments/knapen_AOT/AOT_stimuli/rescaled_final/0701_fw.mp4	0.0	353.0660400390625	
80	336.2598180770874	pulse	1	t		78.0	2.5	/experiments/knapen_AOT/AOT_stimuli/rescaled_final/0701_fw.mp4	0.0	354.6675570011139	
80	336.37526392936707	fix_post	2		12	78.0	2.5	/experiments/knapen_AOT/AOT_stimuli/rescaled_final/0701_fw.mp4	0.0	354.78300285339355	0.0998530387878418
81	336.4751169681549	fix_pre	0		120	79.0	2.5	/experiments/knapen_AOT/AOT_stimuli/rescaled_final/0613_rv.mp4	0.0	354.8828558921814	1.0001459121704102
81	337.4752628803253	movie	1		241	79.0	2.5	/experiments/knapen_AOT/AOT_stimuli/rescaled_final/0613_rv.mp4	0.0	355.8830018043518	2.4921350479125977
81	337.85946893692017	pulse	1	t		79.0	2.5	/experiments/knapen_AOT/AOT_stimuli/rescaled_final/0613_rv.mp4	0.0	356.26720786094666	
81	339.4591829776764	pulse	1	t		79.0	2.5	/experiments/knapen_AOT/AOT_stimuli/rescaled_final/0613_rv.mp4	0.0	357.8669219017029	
81	339.9673979282379	fix_post	2		12	79.0	2.5	/experiments/knapen_AOT/AOT_stimuli/rescaled_final/0613_rv.mp4	0.0	358.3751368522644	0.09995698928833008
82	340.06735491752625	fix_pre	0		120	80.0	2.5	/experiments/knapen_AOT/AOT_stimuli/rescaled_final/1125_rv.mp4	0.0	358.47509384155273	1.0001699924468994
82	341.0592939853668	pulse	0	t		80.0	2.5	/experiments/knapen_AOT/AOT_stimuli/rescaled_final/1125_rv.mp4	0.0	359.4670329093933	
82	341.06752490997314	movie	1		244	80.0	2.5	/experiments/knapen_AOT/AOT_stimuli/rescaled_final/1125_rv.mp4	0.0	359.47526383399963	2.5087339878082275
82	342.6601650714874	pulse	1	t		80.0	2.5	/experiments/knapen_AOT/AOT_stimuli/rescaled_final/1125_rv.mp4	0.0	361.0679039955139	
82	343.5762588977814	fix_post	2		12	80.0	2.5	/experiments/knapen_AOT/AOT_stimuli/rescaled_final/1125_rv.mp4	0.0	361.98399782180786	0.09997010231018066
83	343.67622900009155	fix_pre	0		120	81.0	2.5	/experiments/knapen_AOT/AOT_stimuli/rescaled_final/2083_rv.mp4	0.0	362.08396792411804	1.0001180171966553
83	344.2597999572754	pulse	0	t		81.0	2.5	/experiments/knapen_AOT/AOT_stimuli/rescaled_final/2083_rv.mp4	0.0	362.6675388813019	
83	344.6763470172882	movie	1		242	81.0	2.5	/experiments/knapen_AOT/AOT_stimuli/rescaled_final/2083_rv.mp4	0.0	363.0840859413147	2.5005669593811035
83	345.855516910553	pulse	1	t		81.0	2.5	/experiments/knapen_AOT/AOT_stimuli/rescaled_final/2083_rv.mp4	0.0	364.26325583457947	
83	347.1769139766693	fix_post	2		12	81.0	2.5	/experiments/knapen_AOT/AOT_stimuli/rescaled_final/2083_rv.mp4	0.0	365.5846529006958	0.09980893135070801
84	347.27672290802	fix_pre	0		120	82.0	2.5	blank	1.0	365.6844618320465	1.0001599788665771
84	347.46029806137085	pulse	0	t		82.0	2.5	blank	1.0	365.86803698539734	
84	348.2768828868866	movie	1		300	82.0	2.5	blank	1.0	366.6846218109131	2.500373125076294
84	349.0604519844055	pulse	1	t		82.0	2.5	blank	1.0	367.468190908432	
84	350.6607360839844	pulse	1	t		82.0	2.5	blank	1.0	369.06847500801086	
84	350.7772560119629	fix_post	2		12	82.0	2.5	blank	1.0	369.1849949359894	0.10003304481506348
85	350.87728905677795	fix_pre	0		119	83.0	2.5	/experiments/knapen_AOT/AOT_stimuli/rescaled_final/1316_rv.mp4	0.0	369.28502798080444	0.9917900562286377
85	351.8690791130066	movie	1		243	83.0	2.5	/experiments/knapen_AOT/AOT_stimuli/rescaled_final/1316_rv.mp4	0.0	370.2768180370331	2.5004279613494873
85	352.26115894317627	pulse	1	t		83.0	2.5	/experiments/knapen_AOT/AOT_stimuli/rescaled_final/1316_rv.mp4	0.0	370.66889786720276	
85	353.8612570762634	pulse	1	t		83.0	2.5	/experiments/knapen_AOT/AOT_stimuli/rescaled_final/1316_rv.mp4	0.0	372.2689960002899	
85	354.3695070743561	fix_post	2		12	83.0	2.5	/experiments/knapen_AOT/AOT_stimuli/rescaled_final/1316_rv.mp4	0.0	372.77724599838257	0.0999448299407959
87	354.4694519042969	stim	0		1716					372.87719082832336	14.302251100540161
87	355.45409893989563	pulse	0	t						373.8618378639221	
87	357.05436992645264	pulse	0	t						375.4621088504791	
87	358.6544179916382	pulse	0	t						377.0621569156647	
87	360.2548871040344	pulse	0	t						378.6626260280609	
87	361.8540918827057	pulse	0	t						380.2618308067322	
87	363.4542438983917	pulse	0	t						381.8619828224182	
87	365.0544059276581	pulse	0	t						383.46214485168457	
87	366.65485095977783	pulse	0	t						385.0625898838043	
87	368.2550549507141	pulse	0	t						386.6627938747406	
