trial_nr	onset	event_type	phase	response	nr_frames	movie_index	movie_duration	movie_file	blank	onset_abs	duration
0	0.1498720645904541	stim	0		1					16.35809564590454	0.008469104766845703
0	0.08301496505737305	response	0	space						16.29123854637146	
1	0.1583411693572998	stim	0		4696					16.366564750671387	39.14909386634827
1	39.297077655792236	pulse	0	t						55.50530123710632	
1	39.307435035705566	stim	1		1715					55.51565861701965	14.300402164459229
1	40.88947319984436	pulse	1	t						57.09769678115845	
1	42.489649295806885	pulse	1	t						58.69787287712097	
1	44.089903593063354	pulse	1	t						60.29812717437744	
1	45.690223693847656	pulse	1	t						61.89844727516174	
1	47.29044723510742	pulse	1	t						63.49867081642151	
1	48.89070200920105	pulse	1	t						65.09892559051514	
1	50.49086546897888	pulse	1	t						66.69908905029297	
1	52.09112024307251	pulse	1	t						68.2993438243866	
2	53.607837200164795	fix_pre	0		11	0.0	2.5	/experiments/knapen_AOT/AOT_stimuli/rescaled_final/1731_rv.mp4	0.0	69.81606078147888	0.12521052360534668
2	53.691367864608765	pulse	0	t		0.0	2.5	/experiments/knapen_AOT/AOT_stimuli/rescaled_final/1731_rv.mp4	0.0	69.89959144592285	
2	53.73304772377014	movie	1		279	0.0	2.5	/experiments/knapen_AOT/AOT_stimuli/rescaled_final/1731_rv.mp4	0.0	69.94127130508423	2.4751877784729004
2	55.29087018966675	pulse	1	t		0.0	2.5	/experiments/knapen_AOT/AOT_stimuli/rescaled_final/1731_rv.mp4	0.0	71.49909377098083	
2	56.20823550224304	fix_post	2		12	0.0	2.5	/experiments/knapen_AOT/AOT_stimuli/rescaled_final/1731_rv.mp4	0.0	72.41645908355713	0.09999942779541016
3	56.30823493003845	fix_pre	0		120	1.0	2.5	/experiments/knapen_AOT/AOT_stimuli/rescaled_final/0065_fw.mp4	0.0	72.51645851135254	1.0085477828979492
3	56.8919198513031	pulse	0	t		1.0	2.5	/experiments/knapen_AOT/AOT_stimuli/rescaled_final/0065_fw.mp4	0.0	73.10014343261719	
3	57.3167827129364	movie	1		278	1.0	2.5	/experiments/knapen_AOT/AOT_stimuli/rescaled_final/0065_fw.mp4	0.0	73.52500629425049	2.4920074939727783
3	58.49031066894531	pulse	1	t		1.0	2.5	/experiments/knapen_AOT/AOT_stimuli/rescaled_final/0065_fw.mp4	0.0	74.6985342502594	
3	59.80879020690918	fix_post	2		12	1.0	2.5	/experiments/knapen_AOT/AOT_stimuli/rescaled_final/0065_fw.mp4	0.0	76.01701378822327	0.09999585151672363
4	59.9087860584259	fix_pre	0		120	2.0	2.5	/experiments/knapen_AOT/AOT_stimuli/rescaled_final/1108_rv.mp4	0.0	76.11700963973999	1.0085194110870361
4	60.09232759475708	pulse	0	t		2.0	2.5	/experiments/knapen_AOT/AOT_stimuli/rescaled_final/1108_rv.mp4	0.0	76.30055117607117	
4	60.91730546951294	movie	1		268	2.0	2.5	/experiments/knapen_AOT/AOT_stimuli/rescaled_final/1108_rv.mp4	0.0	77.12552905082703	2.49202299118042
4	61.69058275222778	pulse	1	t		2.0	2.5	/experiments/knapen_AOT/AOT_stimuli/rescaled_final/1108_rv.mp4	0.0	77.89880633354187	
4	63.291181802749634	pulse	1	t		2.0	2.5	/experiments/knapen_AOT/AOT_stimuli/rescaled_final/1108_rv.mp4	0.0	79.49940538406372	
4	63.40932846069336	fix_post	2		12	2.0	2.5	/experiments/knapen_AOT/AOT_stimuli/rescaled_final/1108_rv.mp4	0.0	79.61755204200745	0.10000014305114746
5	63.50932860374451	fix_pre	0		120	3.0	2.5	/experiments/knapen_AOT/AOT_stimuli/rescaled_final/1905_fw.mp4	0.0	79.7175521850586	1.0084936618804932
5	64.517822265625	movie	1		272	3.0	2.5	/experiments/knapen_AOT/AOT_stimuli/rescaled_final/1905_fw.mp4	0.0	80.72604584693909	2.4920225143432617
5	64.89156579971313	pulse	1	t		3.0	2.5	/experiments/knapen_AOT/AOT_stimuli/rescaled_final/1905_fw.mp4	0.0	81.09978938102722	
5	66.4912383556366	pulse	1	t		3.0	2.5	/experiments/knapen_AOT/AOT_stimuli/rescaled_final/1905_fw.mp4	0.0	82.69946193695068	
5	67.00984477996826	fix_post	2		12	3.0	2.5	/experiments/knapen_AOT/AOT_stimuli/rescaled_final/1905_fw.mp4	0.0	83.21806836128235	0.10002660751342773
6	67.10987138748169	fix_pre	0		119	4.0	2.5	/experiments/knapen_AOT/AOT_stimuli/rescaled_final/1800_fw.mp4	0.0	83.31809496879578	1.000128984451294
6	68.09368634223938	pulse	0	t		4.0	2.5	/experiments/knapen_AOT/AOT_stimuli/rescaled_final/1800_fw.mp4	0.0	84.30190992355347	
6	68.11000037193298	movie	1		284	4.0	2.5	/experiments/knapen_AOT/AOT_stimuli/rescaled_final/1800_fw.mp4	0.0	84.31822395324707	2.500392198562622
6	69.6922721862793	pulse	1	t		4.0	2.5	/experiments/knapen_AOT/AOT_stimuli/rescaled_final/1800_fw.mp4	0.0	85.90049576759338	
6	70.6103925704956	fix_post	2		12	4.0	2.5	/experiments/knapen_AOT/AOT_stimuli/rescaled_final/1800_fw.mp4	0.0	86.81861615180969	0.10006976127624512
7	70.71046233177185	fix_pre	0		120	5.0	2.5	blank	1.0	86.91868591308594	1.0002293586730957
7	71.29413962364197	pulse	0	t		5.0	2.5	blank	1.0	87.50236320495605	
7	71.71069169044495	movie	1		300	5.0	2.5	blank	1.0	87.91891527175903	2.5003745555877686
7	72.88660979270935	pulse	1	t		5.0	2.5	blank	1.0	89.09483337402344	
7	74.21106624603271	fix_post	2		12	5.0	2.5	blank	1.0	90.4192898273468	0.09990215301513672
8	74.31096839904785	fix_pre	0		120	6.0	2.5	/experiments/knapen_AOT/AOT_stimuli/rescaled_final/2061_rv.mp4	0.0	90.51919198036194	1.0084850788116455
8	74.48692774772644	pulse	0	t		6.0	2.5	/experiments/knapen_AOT/AOT_stimuli/rescaled_final/2061_rv.mp4	0.0	90.69515132904053	
8	75.3194534778595	movie	1		269	6.0	2.5	/experiments/knapen_AOT/AOT_stimuli/rescaled_final/2061_rv.mp4	0.0	91.52767705917358	2.492027997970581
8	76.08670020103455	pulse	1	t		6.0	2.5	/experiments/knapen_AOT/AOT_stimuli/rescaled_final/2061_rv.mp4	0.0	92.29492378234863	
8	77.68691658973694	pulse	1	t		6.0	2.5	/experiments/knapen_AOT/AOT_stimuli/rescaled_final/2061_rv.mp4	0.0	93.89514017105103	
8	77.81148147583008	fix_post	2		12	6.0	2.5	/experiments/knapen_AOT/AOT_stimuli/rescaled_final/2061_rv.mp4	0.0	94.01970505714417	0.10001564025878906
9	77.91149711608887	fix_pre	0		120	7.0	2.5	/experiments/knapen_AOT/AOT_stimuli/rescaled_final/1780_fw.mp4	0.0	94.11972069740295	1.008481502532959
9	78.91997861862183	movie	1		273	7.0	2.5	/experiments/knapen_AOT/AOT_stimuli/rescaled_final/1780_fw.mp4	0.0	95.12820219993591	2.4920248985290527
9	79.28708267211914	pulse	1	t		7.0	2.5	/experiments/knapen_AOT/AOT_stimuli/rescaled_final/1780_fw.mp4	0.0	95.49530625343323	
9	80.88721561431885	pulse	1	t		7.0	2.5	/experiments/knapen_AOT/AOT_stimuli/rescaled_final/1780_fw.mp4	0.0	97.09543919563293	
9	81.41200351715088	fix_post	2		12	7.0	2.5	/experiments/knapen_AOT/AOT_stimuli/rescaled_final/1780_fw.mp4	0.0	97.62022709846497	0.10009503364562988
10	81.51209855079651	fix_pre	0		118	8.0	2.5	/experiments/knapen_AOT/AOT_stimuli/rescaled_final/0670_fw.mp4	0.0	97.7203221321106	0.9918808937072754
10	82.48740577697754	pulse	0	t		8.0	2.5	/experiments/knapen_AOT/AOT_stimuli/rescaled_final/0670_fw.mp4	0.0	98.69562935829163	
10	82.50397944450378	movie	1		274	8.0	2.5	/experiments/knapen_AOT/AOT_stimuli/rescaled_final/0670_fw.mp4	0.0	98.71220302581787	2.5002405643463135
10	84.08591389656067	pulse	1	t		8.0	2.5	/experiments/knapen_AOT/AOT_stimuli/rescaled_final/0670_fw.mp4	0.0	100.29413747787476	
10	85.0042200088501	fix_post	2		12	8.0	2.5	/experiments/knapen_AOT/AOT_stimuli/rescaled_final/0670_fw.mp4	0.0	101.21244359016418	0.10004615783691406
11	85.10426616668701	fix_pre	0		120	9.0	2.5	/experiments/knapen_AOT/AOT_stimuli/rescaled_final/2129_rv.mp4	0.0	101.3124897480011	1.0084590911865234
11	85.68793368339539	pulse	0	t		9.0	2.5	/experiments/knapen_AOT/AOT_stimuli/rescaled_final/2129_rv.mp4	0.0	101.89615726470947	
11	86.11272525787354	movie	1		270	9.0	2.5	/experiments/knapen_AOT/AOT_stimuli/rescaled_final/2129_rv.mp4	0.0	102.32094883918762	2.492044448852539
11	87.28652739524841	pulse	1	t		9.0	2.5	/experiments/knapen_AOT/AOT_stimuli/rescaled_final/2129_rv.mp4	0.0	103.4947509765625	
11	88.60476970672607	fix_post	2		12	9.0	2.5	/experiments/knapen_AOT/AOT_stimuli/rescaled_final/2129_rv.mp4	0.0	104.81299328804016	0.10007667541503906
12	88.70484638214111	fix_pre	0		120	10.0	2.5	/experiments/knapen_AOT/AOT_stimuli/rescaled_final/1020_rv.mp4	0.0	104.9130699634552	1.0084567070007324
12	88.88834834098816	pulse	0	t		10.0	2.5	/experiments/knapen_AOT/AOT_stimuli/rescaled_final/1020_rv.mp4	0.0	105.09657192230225	
12	89.71330308914185	movie	1		281	10.0	2.5	/experiments/knapen_AOT/AOT_stimuli/rescaled_final/1020_rv.mp4	0.0	105.92152667045593	2.492013454437256
12	90.48863387107849	pulse	1	t		10.0	2.5	/experiments/knapen_AOT/AOT_stimuli/rescaled_final/1020_rv.mp4	0.0	106.69685745239258	
12	92.08703517913818	pulse	1	t		10.0	2.5	/experiments/knapen_AOT/AOT_stimuli/rescaled_final/1020_rv.mp4	0.0	108.29525876045227	
12	92.2053165435791	fix_post	2		12	10.0	2.5	/experiments/knapen_AOT/AOT_stimuli/rescaled_final/1020_rv.mp4	0.0	108.41354012489319	0.10001277923583984
13	92.30532932281494	fix_pre	0		120	11.0	2.5	/experiments/knapen_AOT/AOT_stimuli/rescaled_final/1793_rv.mp4	0.0	108.51355290412903	1.008476972579956
13	93.3138062953949	movie	1		284	11.0	2.5	/experiments/knapen_AOT/AOT_stimuli/rescaled_final/1793_rv.mp4	0.0	109.52202987670898	2.4920804500579834
13	93.68705081939697	pulse	1	t		11.0	2.5	/experiments/knapen_AOT/AOT_stimuli/rescaled_final/1793_rv.mp4	0.0	109.89527440071106	
13	95.28753209114075	pulse	1	t		11.0	2.5	/experiments/knapen_AOT/AOT_stimuli/rescaled_final/1793_rv.mp4	0.0	111.49575567245483	
13	95.80588674545288	fix_post	2		12	11.0	2.5	/experiments/knapen_AOT/AOT_stimuli/rescaled_final/1793_rv.mp4	0.0	112.01411032676697	0.09998798370361328
14	95.9058747291565	fix_pre	0		119	12.0	2.5	blank	1.0	112.11409831047058	0.9918196201324463
14	96.88954854011536	pulse	0	t		12.0	2.5	blank	1.0	113.09777212142944	
14	96.89769434928894	movie	1		301	12.0	2.5	blank	1.0	113.10591793060303	2.5086920261383057
14	98.48982191085815	pulse	1	t		12.0	2.5	blank	1.0	114.69804549217224	
14	99.40638637542725	fix_post	2		12	12.0	2.5	blank	1.0	115.61460995674133	0.10001659393310547
15	99.50640296936035	fix_pre	0		120	13.0	2.5	/experiments/knapen_AOT/AOT_stimuli/rescaled_final/1371_fw.mp4	0.0	115.71462655067444	1.0085062980651855
15	100.0901050567627	pulse	0	t		13.0	2.5	/experiments/knapen_AOT/AOT_stimuli/rescaled_final/1371_fw.mp4	0.0	116.29832863807678	
15	100.51490926742554	movie	1		272	13.0	2.5	/experiments/knapen_AOT/AOT_stimuli/rescaled_final/1371_fw.mp4	0.0	116.72313284873962	2.4920318126678467
15	101.68960618972778	pulse	1	t		13.0	2.5	/experiments/knapen_AOT/AOT_stimuli/rescaled_final/1371_fw.mp4	0.0	117.89782977104187	
15	103.00694108009338	fix_post	2		12	13.0	2.5	/experiments/knapen_AOT/AOT_stimuli/rescaled_final/1371_fw.mp4	0.0	119.21516466140747	0.10012412071228027
16	103.10706520080566	fix_pre	0		120	14.0	2.5	/experiments/knapen_AOT/AOT_stimuli/rescaled_final/0387_fw.mp4	0.0	119.31528878211975	1.00840163230896
16	103.29052019119263	pulse	0	t		14.0	2.5	/experiments/knapen_AOT/AOT_stimuli/rescaled_final/0387_fw.mp4	0.0	119.49874377250671	
16	104.11546683311462	movie	1		270	14.0	2.5	/experiments/knapen_AOT/AOT_stimuli/rescaled_final/0387_fw.mp4	0.0	120.32369041442871	2.4920010566711426
16	104.88888621330261	pulse	1	t		14.0	2.5	/experiments/knapen_AOT/AOT_stimuli/rescaled_final/0387_fw.mp4	0.0	121.0971097946167	
16	106.49053525924683	pulse	1	t		14.0	2.5	/experiments/knapen_AOT/AOT_stimuli/rescaled_final/0387_fw.mp4	0.0	122.69875884056091	
16	106.60746788978577	fix_post	2		12	14.0	2.5	/experiments/knapen_AOT/AOT_stimuli/rescaled_final/0387_fw.mp4	0.0	122.81569147109985	0.1000361442565918
17	106.70750403404236	fix_pre	0		120	15.0	2.5	/experiments/knapen_AOT/AOT_stimuli/rescaled_final/1108_rv.mp4	0.0	122.91572761535645	1.008493423461914
17	107.71599745750427	movie	1		269	15.0	2.5	/experiments/knapen_AOT/AOT_stimuli/rescaled_final/1108_rv.mp4	0.0	123.92422103881836	2.4920339584350586
17	108.09169459342957	pulse	1	t		15.0	2.5	/experiments/knapen_AOT/AOT_stimuli/rescaled_final/1108_rv.mp4	0.0	124.29991817474365	
17	109.68960738182068	pulse	1	t		15.0	2.5	/experiments/knapen_AOT/AOT_stimuli/rescaled_final/1108_rv.mp4	0.0	125.89783096313477	
17	110.20803141593933	fix_post	2		12	15.0	2.5	/experiments/knapen_AOT/AOT_stimuli/rescaled_final/1108_rv.mp4	0.0	126.41625499725342	0.10008382797241211
18	110.30811524391174	fix_pre	0		119	16.0	2.5	/experiments/knapen_AOT/AOT_stimuli/rescaled_final/0254_fw.mp4	0.0	126.51633882522583	1.0000882148742676
18	111.29173755645752	pulse	0	t		16.0	2.5	/experiments/knapen_AOT/AOT_stimuli/rescaled_final/0254_fw.mp4	0.0	127.4999611377716	
18	111.30820345878601	movie	1		264	16.0	2.5	/experiments/knapen_AOT/AOT_stimuli/rescaled_final/0254_fw.mp4	0.0	127.5164270401001	2.500425338745117
18	112.8904960155487	pulse	1	t		16.0	2.5	/experiments/knapen_AOT/AOT_stimuli/rescaled_final/0254_fw.mp4	0.0	129.0987195968628	
18	113.80862879753113	fix_post	2		12	16.0	2.5	/experiments/knapen_AOT/AOT_stimuli/rescaled_final/0254_fw.mp4	0.0	130.01685237884521	0.09995818138122559
19	113.90858697891235	fix_pre	0		120	17.0	2.5	/experiments/knapen_AOT/AOT_stimuli/rescaled_final/1933_rv.mp4	0.0	130.11681056022644	1.0084693431854248
19	114.4921977519989	pulse	0	t		17.0	2.5	/experiments/knapen_AOT/AOT_stimuli/rescaled_final/1933_rv.mp4	0.0	130.700421333313	
19	114.91705632209778	movie	1		270	17.0	2.5	/experiments/knapen_AOT/AOT_stimuli/rescaled_final/1933_rv.mp4	0.0	131.12527990341187	2.4920501708984375
19	116.0904552936554	pulse	1	t		17.0	2.5	/experiments/knapen_AOT/AOT_stimuli/rescaled_final/1933_rv.mp4	0.0	132.29867887496948	
19	117.40910649299622	fix_post	2		12	17.0	2.5	/experiments/knapen_AOT/AOT_stimuli/rescaled_final/1933_rv.mp4	0.0	133.6173300743103	0.10000872611999512
20	117.50911521911621	fix_pre	0		120	18.0	2.5	/experiments/knapen_AOT/AOT_stimuli/rescaled_final/2103_rv.mp4	0.0	133.7173388004303	1.0085525512695312
20	117.69270372390747	pulse	0	t		18.0	2.5	/experiments/knapen_AOT/AOT_stimuli/rescaled_final/2103_rv.mp4	0.0	133.90092730522156	
20	118.51766777038574	movie	1		265	18.0	2.5	/experiments/knapen_AOT/AOT_stimuli/rescaled_final/2103_rv.mp4	0.0	134.72589135169983	2.491999626159668
20	119.29094934463501	pulse	1	t		18.0	2.5	/experiments/knapen_AOT/AOT_stimuli/rescaled_final/2103_rv.mp4	0.0	135.4991729259491	
20	120.89165329933167	pulse	1	t		18.0	2.5	/experiments/knapen_AOT/AOT_stimuli/rescaled_final/2103_rv.mp4	0.0	137.09987688064575	
20	121.00966739654541	fix_post	2		12	18.0	2.5	/experiments/knapen_AOT/AOT_stimuli/rescaled_final/2103_rv.mp4	0.0	137.2178909778595	0.10001707077026367
21	121.10968446731567	fix_pre	0		120	19.0	2.5	/experiments/knapen_AOT/AOT_stimuli/rescaled_final/1040_rv.mp4	0.0	137.31790804862976	1.0084824562072754
21	122.11816692352295	movie	1		276	19.0	2.5	/experiments/knapen_AOT/AOT_stimuli/rescaled_final/1040_rv.mp4	0.0	138.32639050483704	2.5005640983581543
21	122.49159121513367	pulse	1	t		19.0	2.5	/experiments/knapen_AOT/AOT_stimuli/rescaled_final/1040_rv.mp4	0.0	138.69981479644775	
21	124.09133434295654	pulse	1	t		19.0	2.5	/experiments/knapen_AOT/AOT_stimuli/rescaled_final/1040_rv.mp4	0.0	140.29955792427063	
21	124.6187310218811	fix_post	2		11	19.0	2.5	/experiments/knapen_AOT/AOT_stimuli/rescaled_final/1040_rv.mp4	0.0	140.8269546031952	0.09150815010070801
22	124.71023917198181	fix_pre	0		119	20.0	2.5	blank	1.0	140.9184627532959	0.9917762279510498
22	125.68623518943787	pulse	0	t		20.0	2.5	blank	1.0	141.89445877075195	
22	125.70201539993286	movie	1		301	20.0	2.5	blank	1.0	141.91023898124695	2.5087194442749023
22	127.28607869148254	pulse	1	t		20.0	2.5	blank	1.0	143.49430227279663	
22	128.21073484420776	fix_post	2		12	20.0	2.5	blank	1.0	144.41895842552185	0.10002803802490234
23	128.31076288223267	fix_pre	0		120	21.0	2.5	/experiments/knapen_AOT/AOT_stimuli/rescaled_final/1826_fw.mp4	0.0	144.51898646354675	1.0084888935089111
23	128.88611698150635	pulse	0	t		21.0	2.5	/experiments/knapen_AOT/AOT_stimuli/rescaled_final/1826_fw.mp4	0.0	145.09434056282043	
23	129.31925177574158	movie	1		283	21.0	2.5	/experiments/knapen_AOT/AOT_stimuli/rescaled_final/1826_fw.mp4	0.0	145.52747535705566	2.492016553878784
23	130.4862585067749	pulse	1	t		21.0	2.5	/experiments/knapen_AOT/AOT_stimuli/rescaled_final/1826_fw.mp4	0.0	146.694482088089	
23	131.81126832962036	fix_post	2		12	21.0	2.5	/experiments/knapen_AOT/AOT_stimuli/rescaled_final/1826_fw.mp4	0.0	148.01949191093445	0.10005450248718262
24	131.91132283210754	fix_pre	0		120	22.0	2.5	/experiments/knapen_AOT/AOT_stimuli/rescaled_final/1447_fw.mp4	0.0	148.11954641342163	1.0084712505340576
24	132.08663320541382	pulse	0	t		22.0	2.5	/experiments/knapen_AOT/AOT_stimuli/rescaled_final/1447_fw.mp4	0.0	148.2948567867279	
24	132.9197940826416	movie	1		274	22.0	2.5	/experiments/knapen_AOT/AOT_stimuli/rescaled_final/1447_fw.mp4	0.0	149.1280176639557	2.4920575618743896
24	133.6871213912964	pulse	1	t		22.0	2.5	/experiments/knapen_AOT/AOT_stimuli/rescaled_final/1447_fw.mp4	0.0	149.89534497261047	
24	135.2871391773224	pulse	1	t		22.0	2.5	/experiments/knapen_AOT/AOT_stimuli/rescaled_final/1447_fw.mp4	0.0	151.49536275863647	
24	135.411851644516	fix_post	2		12	22.0	2.5	/experiments/knapen_AOT/AOT_stimuli/rescaled_final/1447_fw.mp4	0.0	151.62007522583008	0.09994864463806152
25	135.51180028915405	fix_pre	0		120	23.0	2.5	/experiments/knapen_AOT/AOT_stimuli/rescaled_final/1822_fw.mp4	0.0	151.72002387046814	1.0085437297821045
25	136.52034401893616	movie	1		270	23.0	2.5	/experiments/knapen_AOT/AOT_stimuli/rescaled_final/1822_fw.mp4	0.0	152.72856760025024	2.492017984390259
25	136.88734674453735	pulse	1	t		23.0	2.5	/experiments/knapen_AOT/AOT_stimuli/rescaled_final/1822_fw.mp4	0.0	153.09557032585144	
25	138.4871485233307	pulse	1	t		23.0	2.5	/experiments/knapen_AOT/AOT_stimuli/rescaled_final/1822_fw.mp4	0.0	154.69537210464478	
25	139.01236200332642	fix_post	2		12	23.0	2.5	/experiments/knapen_AOT/AOT_stimuli/rescaled_final/1822_fw.mp4	0.0	155.2205855846405	0.10002994537353516
26	139.11239194869995	fix_pre	0		118	24.0	2.5	/experiments/knapen_AOT/AOT_stimuli/rescaled_final/0758_rv.mp4	0.0	155.32061553001404	0.9918389320373535
26	140.0877914428711	pulse	0	t		24.0	2.5	/experiments/knapen_AOT/AOT_stimuli/rescaled_final/0758_rv.mp4	0.0	156.29601502418518	
26	140.1042308807373	movie	1		273	24.0	2.5	/experiments/knapen_AOT/AOT_stimuli/rescaled_final/0758_rv.mp4	0.0	156.3124544620514	2.500372886657715
26	141.68712830543518	pulse	1	t		24.0	2.5	/experiments/knapen_AOT/AOT_stimuli/rescaled_final/0758_rv.mp4	0.0	157.89535188674927	
26	142.60460376739502	fix_post	2		12	24.0	2.5	/experiments/knapen_AOT/AOT_stimuli/rescaled_final/0758_rv.mp4	0.0	158.8128273487091	0.0999455451965332
27	142.70454931259155	fix_pre	0		120	25.0	2.5	/experiments/knapen_AOT/AOT_stimuli/rescaled_final/0411_rv.mp4	0.0	158.91277289390564	1.0085687637329102
27	143.2885823249817	pulse	0	t		25.0	2.5	/experiments/knapen_AOT/AOT_stimuli/rescaled_final/0411_rv.mp4	0.0	159.49680590629578	
27	143.71311807632446	movie	1		264	25.0	2.5	/experiments/knapen_AOT/AOT_stimuli/rescaled_final/0411_rv.mp4	0.0	159.92134165763855	2.491980791091919
27	144.88622641563416	pulse	1	t		25.0	2.5	/experiments/knapen_AOT/AOT_stimuli/rescaled_final/0411_rv.mp4	0.0	161.09444999694824	
27	146.20509886741638	fix_post	2		12	25.0	2.5	/experiments/knapen_AOT/AOT_stimuli/rescaled_final/0411_rv.mp4	0.0	162.41332244873047	0.10003256797790527
28	146.3051314353943	fix_pre	0		120	26.0	2.5	/experiments/knapen_AOT/AOT_stimuli/rescaled_final/1301_rv.mp4	0.0	162.51335501670837	1.0085983276367188
28	146.48885798454285	pulse	0	t		26.0	2.5	/experiments/knapen_AOT/AOT_stimuli/rescaled_final/1301_rv.mp4	0.0	162.69708156585693	
28	147.313729763031	movie	1		264	26.0	2.5	/experiments/knapen_AOT/AOT_stimuli/rescaled_final/1301_rv.mp4	0.0	163.5219533443451	2.491917848587036
28	148.08739614486694	pulse	1	t		26.0	2.5	/experiments/knapen_AOT/AOT_stimuli/rescaled_final/1301_rv.mp4	0.0	164.29561972618103	
28	149.68936419487	pulse	1	t		26.0	2.5	/experiments/knapen_AOT/AOT_stimuli/rescaled_final/1301_rv.mp4	0.0	165.89758777618408	
28	149.80564761161804	fix_post	2		12	26.0	2.5	/experiments/knapen_AOT/AOT_stimuli/rescaled_final/1301_rv.mp4	0.0	166.01387119293213	0.10001182556152344
29	149.90565943717957	fix_pre	0		120	27.0	2.5	blank	1.0	166.11388301849365	1.0001428127288818
29	150.90580224990845	movie	1		300	27.0	2.5	blank	1.0	167.11402583122253	2.500379800796509
29	151.28938794136047	pulse	1	t		27.0	2.5	blank	1.0	167.49761152267456	
29	152.88962197303772	pulse	1	t		27.0	2.5	blank	1.0	169.0978455543518	
29	153.40618205070496	fix_post	2		12	27.0	2.5	blank	1.0	169.61440563201904	0.10002994537353516
30	153.5062119960785	fix_pre	0		119	28.0	2.5	/experiments/knapen_AOT/AOT_stimuli/rescaled_final/0457_rv.mp4	0.0	169.71443557739258	1.000131607055664
30	154.4899435043335	pulse	0	t		28.0	2.5	/experiments/knapen_AOT/AOT_stimuli/rescaled_final/0457_rv.mp4	0.0	170.69816708564758	
30	154.50634360313416	movie	1		281	28.0	2.5	/experiments/knapen_AOT/AOT_stimuli/rescaled_final/0457_rv.mp4	0.0	170.71456718444824	2.5003786087036133
30	156.08911299705505	pulse	1	t		28.0	2.5	/experiments/knapen_AOT/AOT_stimuli/rescaled_final/0457_rv.mp4	0.0	172.29733657836914	
30	157.00672221183777	fix_post	2		12	28.0	2.5	/experiments/knapen_AOT/AOT_stimuli/rescaled_final/0457_rv.mp4	0.0	173.21494579315186	0.10001730918884277
31	157.1067395210266	fix_pre	0		120	29.0	2.5	/experiments/knapen_AOT/AOT_stimuli/rescaled_final/0326_rv.mp4	0.0	173.3149631023407	1.0085296630859375
31	157.69036865234375	pulse	0	t		29.0	2.5	/experiments/knapen_AOT/AOT_stimuli/rescaled_final/0326_rv.mp4	0.0	173.89859223365784	
31	158.11526918411255	movie	1		289	29.0	2.5	/experiments/knapen_AOT/AOT_stimuli/rescaled_final/0326_rv.mp4	0.0	174.32349276542664	2.491999626159668
31	159.28859972953796	pulse	1	t		29.0	2.5	/experiments/knapen_AOT/AOT_stimuli/rescaled_final/0326_rv.mp4	0.0	175.49682331085205	
31	160.60726881027222	fix_post	2		12	29.0	2.5	/experiments/knapen_AOT/AOT_stimuli/rescaled_final/0326_rv.mp4	0.0	176.8154923915863	0.10001730918884277
32	160.70728611946106	fix_pre	0		120	30.0	2.5	/experiments/knapen_AOT/AOT_stimuli/rescaled_final/0504_fw.mp4	0.0	176.91550970077515	1.0085077285766602
32	160.89116621017456	pulse	0	t		30.0	2.5	/experiments/knapen_AOT/AOT_stimuli/rescaled_final/0504_fw.mp4	0.0	177.09938979148865	
32	161.71579384803772	movie	1		269	30.0	2.5	/experiments/knapen_AOT/AOT_stimuli/rescaled_final/0504_fw.mp4	0.0	177.9240174293518	2.4920058250427246
32	162.4890911579132	pulse	1	t		30.0	2.5	/experiments/knapen_AOT/AOT_stimuli/rescaled_final/0504_fw.mp4	0.0	178.6973147392273	
32	164.08938479423523	pulse	1	t		30.0	2.5	/experiments/knapen_AOT/AOT_stimuli/rescaled_final/0504_fw.mp4	0.0	180.29760837554932	
32	164.20779967308044	fix_post	2		12	30.0	2.5	/experiments/knapen_AOT/AOT_stimuli/rescaled_final/0504_fw.mp4	0.0	180.41602325439453	0.10003018379211426
33	164.30782985687256	fix_pre	0		120	31.0	2.5	/experiments/knapen_AOT/AOT_stimuli/rescaled_final/0321_fw.mp4	0.0	180.51605343818665	1.0085628032684326
33	165.316392660141	movie	1		276	31.0	2.5	/experiments/knapen_AOT/AOT_stimuli/rescaled_final/0321_fw.mp4	0.0	181.52461624145508	2.492131471633911
33	165.69006204605103	pulse	1	t		31.0	2.5	/experiments/knapen_AOT/AOT_stimuli/rescaled_final/0321_fw.mp4	0.0	181.8982856273651	
33	167.2894856929779	pulse	1	t		31.0	2.5	/experiments/knapen_AOT/AOT_stimuli/rescaled_final/0321_fw.mp4	0.0	183.497709274292	
33	167.8085241317749	fix_post	2		12	31.0	2.5	/experiments/knapen_AOT/AOT_stimuli/rescaled_final/0321_fw.mp4	0.0	184.016747713089	0.09985613822937012
34	167.90838027000427	fix_pre	0		119	32.0	2.5	/experiments/knapen_AOT/AOT_stimuli/rescaled_final/1039_fw.mp4	0.0	184.11660385131836	1.0001394748687744
34	168.89203929901123	pulse	0	t		32.0	2.5	/experiments/knapen_AOT/AOT_stimuli/rescaled_final/1039_fw.mp4	0.0	185.10026288032532	
34	168.90851974487305	movie	1		274	32.0	2.5	/experiments/knapen_AOT/AOT_stimuli/rescaled_final/1039_fw.mp4	0.0	185.11674332618713	2.5003790855407715
34	170.4911630153656	pulse	1	t		32.0	2.5	/experiments/knapen_AOT/AOT_stimuli/rescaled_final/1039_fw.mp4	0.0	186.6993865966797	
34	171.40889883041382	fix_post	2		12	32.0	2.5	/experiments/knapen_AOT/AOT_stimuli/rescaled_final/1039_fw.mp4	0.0	187.6171224117279	0.1001901626586914
35	171.5090889930725	fix_pre	0		120	33.0	2.5	/experiments/knapen_AOT/AOT_stimuli/rescaled_final/2010_fw.mp4	0.0	187.7173125743866	1.0083391666412354
35	172.0926651954651	pulse	0	t		33.0	2.5	/experiments/knapen_AOT/AOT_stimuli/rescaled_final/2010_fw.mp4	0.0	188.30088877677917	
35	172.51742815971375	movie	1		264	33.0	2.5	/experiments/knapen_AOT/AOT_stimuli/rescaled_final/2010_fw.mp4	0.0	188.72565174102783	2.492027521133423
35	173.69097542762756	pulse	1	t		33.0	2.5	/experiments/knapen_AOT/AOT_stimuli/rescaled_final/2010_fw.mp4	0.0	189.89919900894165	
35	175.00945568084717	fix_post	2		12	33.0	2.5	/experiments/knapen_AOT/AOT_stimuli/rescaled_final/2010_fw.mp4	0.0	191.21767926216125	0.09999823570251465
36	175.10945391654968	fix_pre	0		120	34.0	2.5	blank	1.0	191.31767749786377	1.0002110004425049
36	175.2930498123169	pulse	0	t		34.0	2.5	blank	1.0	191.50127339363098	
36	176.1096649169922	movie	1		300	34.0	2.5	blank	1.0	192.31788849830627	2.500368118286133
36	176.89327359199524	pulse	1	t		34.0	2.5	blank	1.0	193.10149717330933	
36	178.49358129501343	pulse	1	t		34.0	2.5	blank	1.0	194.70180487632751	
36	178.61003303527832	fix_post	2		12	34.0	2.5	blank	1.0	194.8182566165924	0.09998822212219238
37	178.7100212574005	fix_pre	0		120	35.0	2.5	/experiments/knapen_AOT/AOT_stimuli/rescaled_final/0164_fw.mp4	0.0	194.9182448387146	1.0084784030914307
37	179.71849966049194	movie	1		268	35.0	2.5	/experiments/knapen_AOT/AOT_stimuli/rescaled_final/0164_fw.mp4	0.0	195.92672324180603	2.492037534713745
37	180.09176588058472	pulse	1	t		35.0	2.5	/experiments/knapen_AOT/AOT_stimuli/rescaled_final/0164_fw.mp4	0.0	196.2999894618988	
37	181.69376754760742	pulse	1	t		35.0	2.5	/experiments/knapen_AOT/AOT_stimuli/rescaled_final/0164_fw.mp4	0.0	197.9019911289215	
37	182.2105371952057	fix_post	2		12	35.0	2.5	/experiments/knapen_AOT/AOT_stimuli/rescaled_final/0164_fw.mp4	0.0	198.41876077651978	0.10001206398010254
38	182.3105492591858	fix_pre	0		119	36.0	2.5	/experiments/knapen_AOT/AOT_stimuli/rescaled_final/2084_fw.mp4	0.0	198.51877284049988	1.00028657913208
38	183.28660035133362	pulse	0	t		36.0	2.5	/experiments/knapen_AOT/AOT_stimuli/rescaled_final/2084_fw.mp4	0.0	199.4948239326477	
38	183.31083583831787	movie	1		266	36.0	2.5	/experiments/knapen_AOT/AOT_stimuli/rescaled_final/2084_fw.mp4	0.0	199.51905941963196	2.500237226486206
38	184.8863115310669	pulse	1	t		36.0	2.5	/experiments/knapen_AOT/AOT_stimuli/rescaled_final/2084_fw.mp4	0.0	201.09453511238098	
38	185.81107306480408	fix_post	2		12	36.0	2.5	/experiments/knapen_AOT/AOT_stimuli/rescaled_final/2084_fw.mp4	0.0	202.01929664611816	0.10020685195922852
39	185.9112799167633	fix_pre	0		120	37.0	2.5	/experiments/knapen_AOT/AOT_stimuli/rescaled_final/0752_fw.mp4	0.0	202.1195034980774	1.008420705795288
39	186.48653984069824	pulse	0	t		37.0	2.5	/experiments/knapen_AOT/AOT_stimuli/rescaled_final/0752_fw.mp4	0.0	202.69476342201233	
39	186.9197006225586	movie	1		272	37.0	2.5	/experiments/knapen_AOT/AOT_stimuli/rescaled_final/0752_fw.mp4	0.0	203.12792420387268	2.4919166564941406
39	188.08681511878967	pulse	1	t		37.0	2.5	/experiments/knapen_AOT/AOT_stimuli/rescaled_final/0752_fw.mp4	0.0	204.29503870010376	
39	189.41161727905273	fix_post	2		12	37.0	2.5	/experiments/knapen_AOT/AOT_stimuli/rescaled_final/0752_fw.mp4	0.0	205.61984086036682	0.10005044937133789
40	189.51166772842407	fix_pre	0		120	38.0	2.5	/experiments/knapen_AOT/AOT_stimuli/rescaled_final/1039_rv.mp4	0.0	205.71989130973816	1.0084483623504639
40	189.68694257736206	pulse	0	t		38.0	2.5	/experiments/knapen_AOT/AOT_stimuli/rescaled_final/1039_rv.mp4	0.0	205.89516615867615	
40	190.52011609077454	movie	1		270	38.0	2.5	/experiments/knapen_AOT/AOT_stimuli/rescaled_final/1039_rv.mp4	0.0	206.72833967208862	2.492018699645996
40	191.28727746009827	pulse	1	t		38.0	2.5	/experiments/knapen_AOT/AOT_stimuli/rescaled_final/1039_rv.mp4	0.0	207.49550104141235	
40	192.88787651062012	pulse	1	t		38.0	2.5	/experiments/knapen_AOT/AOT_stimuli/rescaled_final/1039_rv.mp4	0.0	209.0961000919342	
40	193.01213479042053	fix_post	2		12	38.0	2.5	/experiments/knapen_AOT/AOT_stimuli/rescaled_final/1039_rv.mp4	0.0	209.22035837173462	0.10001134872436523
41	193.1121461391449	fix_pre	0		120	39.0	2.5	/experiments/knapen_AOT/AOT_stimuli/rescaled_final/1800_rv.mp4	0.0	209.32036972045898	1.0085911750793457
41	194.12073731422424	movie	1		265	39.0	2.5	/experiments/knapen_AOT/AOT_stimuli/rescaled_final/1800_rv.mp4	0.0	210.32896089553833	2.491943120956421
41	194.48641896247864	pulse	1	t		39.0	2.5	/experiments/knapen_AOT/AOT_stimuli/rescaled_final/1800_rv.mp4	0.0	210.69464254379272	
41	196.08781695365906	pulse	1	t		39.0	2.5	/experiments/knapen_AOT/AOT_stimuli/rescaled_final/1800_rv.mp4	0.0	212.29604053497314	
41	196.61268043518066	fix_post	2		12	39.0	2.5	/experiments/knapen_AOT/AOT_stimuli/rescaled_final/1800_rv.mp4	0.0	212.82090401649475	0.10002732276916504
42	196.71270775794983	fix_pre	0		118	40.0	2.5	/experiments/knapen_AOT/AOT_stimuli/rescaled_final/0783_rv.mp4	0.0	212.92093133926392	0.9918258190155029
42	197.68809413909912	pulse	0	t		40.0	2.5	/experiments/knapen_AOT/AOT_stimuli/rescaled_final/0783_rv.mp4	0.0	213.8963177204132	
42	197.70453357696533	movie	1		281	40.0	2.5	/experiments/knapen_AOT/AOT_stimuli/rescaled_final/0783_rv.mp4	0.0	213.91275715827942	2.500361204147339
42	199.28680300712585	pulse	1	t		40.0	2.5	/experiments/knapen_AOT/AOT_stimuli/rescaled_final/0783_rv.mp4	0.0	215.49502658843994	
42	200.20489478111267	fix_post	2		12	40.0	2.5	/experiments/knapen_AOT/AOT_stimuli/rescaled_final/0783_rv.mp4	0.0	216.41311836242676	0.10002803802490234
43	200.30492281913757	fix_pre	0		120	41.0	2.5	/experiments/knapen_AOT/AOT_stimuli/rescaled_final/2084_rv.mp4	0.0	216.51314640045166	1.0086557865142822
43	200.88852334022522	pulse	0	t		41.0	2.5	/experiments/knapen_AOT/AOT_stimuli/rescaled_final/2084_rv.mp4	0.0	217.0967469215393	
43	201.31357860565186	movie	1		261	41.0	2.5	/experiments/knapen_AOT/AOT_stimuli/rescaled_final/2084_rv.mp4	0.0	217.52180218696594	2.4918694496154785
43	202.48825669288635	pulse	1	t		41.0	2.5	/experiments/knapen_AOT/AOT_stimuli/rescaled_final/2084_rv.mp4	0.0	218.69648027420044	
43	203.80544805526733	fix_post	2		12	41.0	2.5	/experiments/knapen_AOT/AOT_stimuli/rescaled_final/2084_rv.mp4	0.0	220.01367163658142	0.10000944137573242
44	203.90545749664307	fix_pre	0		120	42.0	2.5	blank	1.0	220.11368107795715	1.000211238861084
44	204.08907270431519	pulse	0	t		42.0	2.5	blank	1.0	220.29729628562927	
44	204.90566873550415	movie	1		300	42.0	2.5	blank	1.0	221.11389231681824	2.5003039836883545
44	205.68925189971924	pulse	1	t		42.0	2.5	blank	1.0	221.89747548103333	
44	207.28954648971558	pulse	1	t		42.0	2.5	blank	1.0	223.49777007102966	
44	207.4059727191925	fix_post	2		12	42.0	2.5	blank	1.0	223.6141963005066	0.10005474090576172
45	207.50602746009827	fix_pre	0		120	43.0	2.5	/experiments/knapen_AOT/AOT_stimuli/rescaled_final/1826_rv.mp4	0.0	223.71425104141235	1.008521318435669
45	208.51454877853394	movie	1		269	43.0	2.5	/experiments/knapen_AOT/AOT_stimuli/rescaled_final/1826_rv.mp4	0.0	224.72277235984802	2.4919774532318115
45	208.88921451568604	pulse	1	t		43.0	2.5	/experiments/knapen_AOT/AOT_stimuli/rescaled_final/1826_rv.mp4	0.0	225.09743809700012	
45	210.49018740653992	pulse	1	t		43.0	2.5	/experiments/knapen_AOT/AOT_stimuli/rescaled_final/1826_rv.mp4	0.0	226.698410987854	
45	211.00652623176575	fix_post	2		12	43.0	2.5	/experiments/knapen_AOT/AOT_stimuli/rescaled_final/1826_rv.mp4	0.0	227.21474981307983	0.10005998611450195
46	211.10658621788025	fix_pre	0		119	44.0	2.5	/experiments/knapen_AOT/AOT_stimuli/rescaled_final/2091_rv.mp4	0.0	227.31480979919434	1.0000934600830078
46	212.09019923210144	pulse	0	t		44.0	2.5	/experiments/knapen_AOT/AOT_stimuli/rescaled_final/2091_rv.mp4	0.0	228.29842281341553	
46	212.10667967796326	movie	1		283	44.0	2.5	/experiments/knapen_AOT/AOT_stimuli/rescaled_final/2091_rv.mp4	0.0	228.31490325927734	2.500380039215088
46	213.68871068954468	pulse	1	t		44.0	2.5	/experiments/knapen_AOT/AOT_stimuli/rescaled_final/2091_rv.mp4	0.0	229.89693427085876	
46	214.60705971717834	fix_post	2		12	44.0	2.5	/experiments/knapen_AOT/AOT_stimuli/rescaled_final/2091_rv.mp4	0.0	230.81528329849243	0.10004973411560059
47	214.70710945129395	fix_pre	0		120	45.0	2.5	/experiments/knapen_AOT/AOT_stimuli/rescaled_final/1873_rv.mp4	0.0	230.91533303260803	1.008650779724121
47	215.29072546958923	pulse	0	t		45.0	2.5	/experiments/knapen_AOT/AOT_stimuli/rescaled_final/1873_rv.mp4	0.0	231.49894905090332	
47	215.71576023101807	movie	1		265	45.0	2.5	/experiments/knapen_AOT/AOT_stimuli/rescaled_final/1873_rv.mp4	0.0	231.92398381233215	2.4918630123138428
47	216.8888874053955	pulse	1	t		45.0	2.5	/experiments/knapen_AOT/AOT_stimuli/rescaled_final/1873_rv.mp4	0.0	233.0971109867096	
47	218.2076232433319	fix_post	2		12	45.0	2.5	/experiments/knapen_AOT/AOT_stimuli/rescaled_final/1873_rv.mp4	0.0	234.415846824646	0.10006237030029297
48	218.3076856136322	fix_pre	0		120	46.0	2.5	/experiments/knapen_AOT/AOT_stimuli/rescaled_final/1139_rv.mp4	0.0	234.5159091949463	1.0084435939788818
48	218.4911913871765	pulse	0	t		46.0	2.5	/experiments/knapen_AOT/AOT_stimuli/rescaled_final/1139_rv.mp4	0.0	234.6994149684906	
48	219.31612920761108	movie	1		256	46.0	2.5	/experiments/knapen_AOT/AOT_stimuli/rescaled_final/1139_rv.mp4	0.0	235.52435278892517	2.49206805229187
48	220.09153699874878	pulse	1	t		46.0	2.5	/experiments/knapen_AOT/AOT_stimuli/rescaled_final/1139_rv.mp4	0.0	236.29976058006287	
48	221.68994879722595	pulse	1	t		46.0	2.5	/experiments/knapen_AOT/AOT_stimuli/rescaled_final/1139_rv.mp4	0.0	237.89817237854004	
48	221.80819725990295	fix_post	2		12	46.0	2.5	/experiments/knapen_AOT/AOT_stimuli/rescaled_final/1139_rv.mp4	0.0	238.01642084121704	0.09999275207519531
49	221.90819001197815	fix_pre	0		120	47.0	2.5	blank	1.0	238.11641359329224	1.0001256465911865
49	222.90831565856934	movie	1		300	47.0	2.5	blank	1.0	239.11653923988342	2.500363349914551
49	223.29199862480164	pulse	1	t		47.0	2.5	blank	1.0	239.50022220611572	
49	224.89209604263306	pulse	1	t		47.0	2.5	blank	1.0	241.10031962394714	
49	225.4086790084839	fix_post	2		12	47.0	2.5	blank	1.0	241.61690258979797	0.10004091262817383
50	225.50871992111206	fix_pre	0		119	48.0	2.5	/experiments/knapen_AOT/AOT_stimuli/rescaled_final/0752_rv.mp4	0.0	241.71694350242615	1.0086219310760498
50	226.49235582351685	pulse	0	t		48.0	2.5	/experiments/knapen_AOT/AOT_stimuli/rescaled_final/0752_rv.mp4	0.0	242.70057940483093	
50	226.5173418521881	movie	1		274	48.0	2.5	/experiments/knapen_AOT/AOT_stimuli/rescaled_final/0752_rv.mp4	0.0	242.7255654335022	2.491898536682129
50	228.09160733222961	pulse	1	t		48.0	2.5	/experiments/knapen_AOT/AOT_stimuli/rescaled_final/0752_rv.mp4	0.0	244.2998309135437	
50	229.00924038887024	fix_post	2		12	48.0	2.5	/experiments/knapen_AOT/AOT_stimuli/rescaled_final/0752_rv.mp4	0.0	245.21746397018433	0.10000824928283691
51	229.10924863815308	fix_pre	0		120	49.0	2.5	/experiments/knapen_AOT/AOT_stimuli/rescaled_final/0158_fw.mp4	0.0	245.31747221946716	1.0085182189941406
51	229.6928732395172	pulse	0	t		49.0	2.5	/experiments/knapen_AOT/AOT_stimuli/rescaled_final/0158_fw.mp4	0.0	245.9010968208313	
51	230.11776685714722	movie	1		280	49.0	2.5	/experiments/knapen_AOT/AOT_stimuli/rescaled_final/0158_fw.mp4	0.0	246.3259904384613	2.4919960498809814
51	231.29216122627258	pulse	1	t		49.0	2.5	/experiments/knapen_AOT/AOT_stimuli/rescaled_final/0158_fw.mp4	0.0	247.50038480758667	
51	232.6097629070282	fix_post	2		12	49.0	2.5	/experiments/knapen_AOT/AOT_stimuli/rescaled_final/0158_fw.mp4	0.0	248.81798648834229	0.10002613067626953
52	232.70978903770447	fix_pre	0		120	50.0	2.5	/experiments/knapen_AOT/AOT_stimuli/rescaled_final/1401_rv.mp4	0.0	248.91801261901855	1.0084810256958008
52	232.88684058189392	pulse	0	t		50.0	2.5	/experiments/knapen_AOT/AOT_stimuli/rescaled_final/1401_rv.mp4	0.0	249.095064163208	
52	233.71827006340027	movie	1		281	50.0	2.5	/experiments/knapen_AOT/AOT_stimuli/rescaled_final/1401_rv.mp4	0.0	249.92649364471436	2.4920976161956787
52	234.4924509525299	pulse	1	t		50.0	2.5	/experiments/knapen_AOT/AOT_stimuli/rescaled_final/1401_rv.mp4	0.0	250.700674533844	
52	236.09205436706543	pulse	1	t		50.0	2.5	/experiments/knapen_AOT/AOT_stimuli/rescaled_final/1401_rv.mp4	0.0	252.30027794837952	
52	236.21036767959595	fix_post	2		12	50.0	2.5	/experiments/knapen_AOT/AOT_stimuli/rescaled_final/1401_rv.mp4	0.0	252.41859126091003	0.0999906063079834
53	236.31035828590393	fix_pre	0		120	51.0	2.5	/experiments/knapen_AOT/AOT_stimuli/rescaled_final/1070_rv.mp4	0.0	252.51858186721802	1.0084872245788574
53	237.3188455104828	movie	1		276	51.0	2.5	/experiments/knapen_AOT/AOT_stimuli/rescaled_final/1070_rv.mp4	0.0	253.52706909179688	2.491994857788086
53	237.69230914115906	pulse	1	t		51.0	2.5	/experiments/knapen_AOT/AOT_stimuli/rescaled_final/1070_rv.mp4	0.0	253.90053272247314	
53	239.29461336135864	pulse	1	t		51.0	2.5	/experiments/knapen_AOT/AOT_stimuli/rescaled_final/1070_rv.mp4	0.0	255.50283694267273	
53	239.81084036827087	fix_post	2		12	51.0	2.5	/experiments/knapen_AOT/AOT_stimuli/rescaled_final/1070_rv.mp4	0.0	256.01906394958496	0.10002565383911133
54	239.91086602210999	fix_pre	0		119	52.0	2.5	/experiments/knapen_AOT/AOT_stimuli/rescaled_final/1261_fw.mp4	0.0	256.1190896034241	1.000138759613037
54	240.88747715950012	pulse	0	t		52.0	2.5	/experiments/knapen_AOT/AOT_stimuli/rescaled_final/1261_fw.mp4	0.0	257.0957007408142	
54	240.91100478172302	movie	1		280	52.0	2.5	/experiments/knapen_AOT/AOT_stimuli/rescaled_final/1261_fw.mp4	0.0	257.1192283630371	2.500530958175659
54	242.4933397769928	pulse	1	t		52.0	2.5	/experiments/knapen_AOT/AOT_stimuli/rescaled_final/1261_fw.mp4	0.0	258.7015633583069	
54	243.41153573989868	fix_post	2		12	52.0	2.5	/experiments/knapen_AOT/AOT_stimuli/rescaled_final/1261_fw.mp4	0.0	259.61975932121277	0.09987449645996094
55	243.51141023635864	fix_pre	0		120	53.0	2.5	/experiments/knapen_AOT/AOT_stimuli/rescaled_final/1961_fw.mp4	0.0	259.71963381767273	1.0084900856018066
55	244.08684825897217	pulse	0	t		53.0	2.5	/experiments/knapen_AOT/AOT_stimuli/rescaled_final/1961_fw.mp4	0.0	260.29507184028625	
55	244.51990032196045	movie	1		274	53.0	2.5	/experiments/knapen_AOT/AOT_stimuli/rescaled_final/1961_fw.mp4	0.0	260.72812390327454	2.492030382156372
55	245.6873264312744	pulse	1	t		53.0	2.5	/experiments/knapen_AOT/AOT_stimuli/rescaled_final/1961_fw.mp4	0.0	261.8955500125885	
55	247.01193070411682	fix_post	2		12	53.0	2.5	/experiments/knapen_AOT/AOT_stimuli/rescaled_final/1961_fw.mp4	0.0	263.2201542854309	0.10001707077026367
56	247.11194777488708	fix_pre	0		120	54.0	2.5	blank	1.0	263.3201713562012	1.000150203704834
56	247.2873203754425	pulse	0	t		54.0	2.5	blank	1.0	263.4955439567566	
56	248.11209797859192	movie	1		300	54.0	2.5	blank	1.0	264.320321559906	2.500378131866455
56	248.8874523639679	pulse	1	t		54.0	2.5	blank	1.0	265.095675945282	
56	250.48777961730957	pulse	1	t		54.0	2.5	blank	1.0	266.69600319862366	
56	250.61247611045837	fix_post	2		12	54.0	2.5	blank	1.0	266.82069969177246	0.10001397132873535
57	250.7124900817871	fix_pre	0		120	55.0	2.5	/experiments/knapen_AOT/AOT_stimuli/rescaled_final/1034_fw.mp4	0.0	266.9207136631012	1.0085034370422363
57	251.72099351882935	movie	1		286	55.0	2.5	/experiments/knapen_AOT/AOT_stimuli/rescaled_final/1034_fw.mp4	0.0	267.92921710014343	2.4920473098754883
57	252.0879249572754	pulse	1	t		55.0	2.5	/experiments/knapen_AOT/AOT_stimuli/rescaled_final/1034_fw.mp4	0.0	268.2961485385895	
57	253.688227891922	pulse	1	t		55.0	2.5	/experiments/knapen_AOT/AOT_stimuli/rescaled_final/1034_fw.mp4	0.0	269.8964514732361	
57	254.21304082870483	fix_post	2		12	55.0	2.5	/experiments/knapen_AOT/AOT_stimuli/rescaled_final/1034_fw.mp4	0.0	270.4212644100189	0.10007429122924805
58	254.31311511993408	fix_pre	0		118	56.0	2.5	/experiments/knapen_AOT/AOT_stimuli/rescaled_final/1261_fw.mp4	0.0	270.52133870124817	0.9917380809783936
58	255.28841257095337	pulse	0	t		56.0	2.5	/experiments/knapen_AOT/AOT_stimuli/rescaled_final/1261_fw.mp4	0.0	271.49663615226746	
58	255.30485320091248	movie	1		285	56.0	2.5	/experiments/knapen_AOT/AOT_stimuli/rescaled_final/1261_fw.mp4	0.0	271.51307678222656	2.5003483295440674
58	256.88695549964905	pulse	1	t		56.0	2.5	/experiments/knapen_AOT/AOT_stimuli/rescaled_final/1261_fw.mp4	0.0	273.09517908096313	
58	257.80520153045654	fix_post	2		12	56.0	2.5	/experiments/knapen_AOT/AOT_stimuli/rescaled_final/1261_fw.mp4	0.0	274.01342511177063	0.10002756118774414
59	257.9052290916443	fix_pre	0		120	57.0	2.5	/experiments/knapen_AOT/AOT_stimuli/rescaled_final/1961_fw.mp4	0.0	274.1134526729584	1.008498191833496
59	258.48890447616577	pulse	0	t		57.0	2.5	/experiments/knapen_AOT/AOT_stimuli/rescaled_final/1961_fw.mp4	0.0	274.69712805747986	
59	258.9137272834778	movie	1		262	57.0	2.5	/experiments/knapen_AOT/AOT_stimuli/rescaled_final/1961_fw.mp4	0.0	275.12195086479187	2.4920313358306885
59	260.08839988708496	pulse	1	t		57.0	2.5	/experiments/knapen_AOT/AOT_stimuli/rescaled_final/1961_fw.mp4	0.0	276.29662346839905	
59	261.4057586193085	fix_post	2		12	57.0	2.5	/experiments/knapen_AOT/AOT_stimuli/rescaled_final/1961_fw.mp4	0.0	277.61398220062256	0.10002613067626953
60	261.50578474998474	fix_pre	0		120	58.0	2.5	/experiments/knapen_AOT/AOT_stimuli/rescaled_final/0966_rv.mp4	0.0	277.7140083312988	1.0085265636444092
60	261.6893880367279	pulse	0	t		58.0	2.5	/experiments/knapen_AOT/AOT_stimuli/rescaled_final/0966_rv.mp4	0.0	277.897611618042	
60	262.51431131362915	movie	1		271	58.0	2.5	/experiments/knapen_AOT/AOT_stimuli/rescaled_final/0966_rv.mp4	0.0	278.72253489494324	2.492043972015381
60	263.28900027275085	pulse	1	t		58.0	2.5	/experiments/knapen_AOT/AOT_stimuli/rescaled_final/0966_rv.mp4	0.0	279.49722385406494	
60	264.88766169548035	pulse	1	t		58.0	2.5	/experiments/knapen_AOT/AOT_stimuli/rescaled_final/0966_rv.mp4	0.0	281.09588527679443	
60	265.00635528564453	fix_post	2		12	58.0	2.5	/experiments/knapen_AOT/AOT_stimuli/rescaled_final/0966_rv.mp4	0.0	281.2145788669586	0.09997248649597168
61	265.1063277721405	fix_pre	0		120	59.0	2.5	/experiments/knapen_AOT/AOT_stimuli/rescaled_final/0158_rv.mp4	0.0	281.3145513534546	1.0085058212280273
61	266.11483359336853	movie	1		279	59.0	2.5	/experiments/knapen_AOT/AOT_stimuli/rescaled_final/0158_rv.mp4	0.0	282.3230571746826	2.4920215606689453
61	266.49015641212463	pulse	1	t		59.0	2.5	/experiments/knapen_AOT/AOT_stimuli/rescaled_final/0158_rv.mp4	0.0	282.6983799934387	
61	268.0904498100281	pulse	1	t		59.0	2.5	/experiments/knapen_AOT/AOT_stimuli/rescaled_final/0158_rv.mp4	0.0	284.29867339134216	
61	268.6068551540375	fix_post	2		12	59.0	2.5	/experiments/knapen_AOT/AOT_stimuli/rescaled_final/0158_rv.mp4	0.0	284.81507873535156	0.10015487670898438
62	268.70701003074646	fix_pre	0		119	60.0	2.5	/experiments/knapen_AOT/AOT_stimuli/rescaled_final/1641_rv.mp4	0.0	284.91523361206055	1.0000269412994385
62	269.6908643245697	pulse	0	t		60.0	2.5	/experiments/knapen_AOT/AOT_stimuli/rescaled_final/1641_rv.mp4	0.0	285.8990879058838	
62	269.7070369720459	movie	1		288	60.0	2.5	/experiments/knapen_AOT/AOT_stimuli/rescaled_final/1641_rv.mp4	0.0	285.91526055336	2.500344753265381
62	271.2890281677246	pulse	1	t		60.0	2.5	/experiments/knapen_AOT/AOT_stimuli/rescaled_final/1641_rv.mp4	0.0	287.4972517490387	
62	272.2073817253113	fix_post	2		12	60.0	2.5	/experiments/knapen_AOT/AOT_stimuli/rescaled_final/1641_rv.mp4	0.0	288.41560530662537	0.10004758834838867
63	272.30742931365967	fix_pre	0		120	61.0	2.5	/experiments/knapen_AOT/AOT_stimuli/rescaled_final/1537_fw.mp4	0.0	288.51565289497375	1.0084965229034424
63	272.8910346031189	pulse	0	t		61.0	2.5	/experiments/knapen_AOT/AOT_stimuli/rescaled_final/1537_fw.mp4	0.0	289.099258184433	
63	273.3159258365631	movie	1		285	61.0	2.5	/experiments/knapen_AOT/AOT_stimuli/rescaled_final/1537_fw.mp4	0.0	289.5241494178772	2.492023229598999
63	274.4895439147949	pulse	1	t		61.0	2.5	/experiments/knapen_AOT/AOT_stimuli/rescaled_final/1537_fw.mp4	0.0	290.697767496109	
63	275.8079490661621	fix_post	2		12	61.0	2.5	/experiments/knapen_AOT/AOT_stimuli/rescaled_final/1537_fw.mp4	0.0	292.0161726474762	0.10000109672546387
64	275.9079501628876	fix_pre	0		120	62.0	2.5	/experiments/knapen_AOT/AOT_stimuli/rescaled_final/0819_rv.mp4	0.0	292.11617374420166	1.0085210800170898
64	276.0915651321411	pulse	0	t		62.0	2.5	/experiments/knapen_AOT/AOT_stimuli/rescaled_final/0819_rv.mp4	0.0	292.2997887134552	
64	276.91647124290466	movie	1		276	62.0	2.5	/experiments/knapen_AOT/AOT_stimuli/rescaled_final/0819_rv.mp4	0.0	293.12469482421875	2.492055654525757
64	277.6917555332184	pulse	1	t		62.0	2.5	/experiments/knapen_AOT/AOT_stimuli/rescaled_final/0819_rv.mp4	0.0	293.89997911453247	
64	279.2921185493469	pulse	1	t		62.0	2.5	/experiments/knapen_AOT/AOT_stimuli/rescaled_final/0819_rv.mp4	0.0	295.500342130661	
64	279.4085268974304	fix_post	2		12	62.0	2.5	/experiments/knapen_AOT/AOT_stimuli/rescaled_final/0819_rv.mp4	0.0	295.6167504787445	0.09995198249816895
65	279.5084788799286	fix_pre	0		120	63.0	2.5	blank	1.0	295.7167024612427	1.0001842975616455
65	280.50866317749023	movie	1		300	63.0	2.5	blank	1.0	296.7168867588043	2.5003457069396973
65	280.8926043510437	pulse	1	t		63.0	2.5	blank	1.0	297.1008279323578	
65	282.4924883842468	pulse	1	t		63.0	2.5	blank	1.0	298.7007119655609	
65	283.00900888442993	fix_post	2		12	63.0	2.5	blank	1.0	299.217232465744	0.10006284713745117
66	283.1090717315674	fix_pre	0		119	64.0	2.5	/experiments/knapen_AOT/AOT_stimuli/rescaled_final/2092_rv.mp4	0.0	299.31729531288147	1.0086030960083008
66	284.0928556919098	pulse	0	t		64.0	2.5	/experiments/knapen_AOT/AOT_stimuli/rescaled_final/2092_rv.mp4	0.0	300.3010792732239	
66	284.1176748275757	movie	1		279	64.0	2.5	/experiments/knapen_AOT/AOT_stimuli/rescaled_final/2092_rv.mp4	0.0	300.32589840888977	2.4918882846832275
66	285.6920464038849	pulse	1	t		64.0	2.5	/experiments/knapen_AOT/AOT_stimuli/rescaled_final/2092_rv.mp4	0.0	301.900269985199	
66	286.6095631122589	fix_post	2		12	64.0	2.5	/experiments/knapen_AOT/AOT_stimuli/rescaled_final/2092_rv.mp4	0.0	302.817786693573	0.10004043579101562
67	286.7096035480499	fix_pre	0		120	65.0	2.5	/experiments/knapen_AOT/AOT_stimuli/rescaled_final/0743_fw.mp4	0.0	302.917827129364	1.0084397792816162
67	287.2932462692261	pulse	0	t		65.0	2.5	/experiments/knapen_AOT/AOT_stimuli/rescaled_final/0743_fw.mp4	0.0	303.50146985054016	
67	287.71804332733154	movie	1		290	65.0	2.5	/experiments/knapen_AOT/AOT_stimuli/rescaled_final/0743_fw.mp4	0.0	303.92626690864563	2.49220609664917
67	288.891930103302	pulse	1	t		65.0	2.5	/experiments/knapen_AOT/AOT_stimuli/rescaled_final/0743_fw.mp4	0.0	305.1001536846161	
67	290.2102494239807	fix_post	2		12	65.0	2.5	/experiments/knapen_AOT/AOT_stimuli/rescaled_final/0743_fw.mp4	0.0	306.4184730052948	0.09986734390258789
68	290.3101167678833	fix_pre	0		120	66.0	2.5	/experiments/knapen_AOT/AOT_stimuli/rescaled_final/1641_rv.mp4	0.0	306.5183403491974	1.008450984954834
68	290.49386739730835	pulse	0	t		66.0	2.5	/experiments/knapen_AOT/AOT_stimuli/rescaled_final/1641_rv.mp4	0.0	306.70209097862244	
68	291.31856775283813	movie	1		280	66.0	2.5	/experiments/knapen_AOT/AOT_stimuli/rescaled_final/1641_rv.mp4	0.0	307.5267913341522	2.492117404937744
68	292.0915639400482	pulse	1	t		66.0	2.5	/experiments/knapen_AOT/AOT_stimuli/rescaled_final/1641_rv.mp4	0.0	308.2997875213623	
68	293.6864974498749	pulse	1	t		66.0	2.5	/experiments/knapen_AOT/AOT_stimuli/rescaled_final/1641_rv.mp4	0.0	309.89472103118896	
68	293.8106851577759	fix_post	2		12	66.0	2.5	/experiments/knapen_AOT/AOT_stimuli/rescaled_final/1641_rv.mp4	0.0	310.01890873908997	0.0999746322631836
69	293.91065979003906	fix_pre	0		120	67.0	2.5	/experiments/knapen_AOT/AOT_stimuli/rescaled_final/1167_fw.mp4	0.0	310.11888337135315	1.0085086822509766
69	294.91916847229004	movie	1		273	67.0	2.5	/experiments/knapen_AOT/AOT_stimuli/rescaled_final/1167_fw.mp4	0.0	311.1273920536041	2.491990327835083
69	295.2868900299072	pulse	1	t		67.0	2.5	/experiments/knapen_AOT/AOT_stimuli/rescaled_final/1167_fw.mp4	0.0	311.4951136112213	
69	296.8865694999695	pulse	1	t		67.0	2.5	/experiments/knapen_AOT/AOT_stimuli/rescaled_final/1167_fw.mp4	0.0	313.09479308128357	
69	297.4111588001251	fix_post	2		12	67.0	2.5	/experiments/knapen_AOT/AOT_stimuli/rescaled_final/1167_fw.mp4	0.0	313.6193823814392	0.10005331039428711
70	297.5112121105194	fix_pre	0		118	68.0	2.5	blank	1.0	313.7194356918335	0.9834556579589844
70	298.4865725040436	pulse	0	t		68.0	2.5	blank	1.0	314.69479608535767	
70	298.4946677684784	movie	1		301	68.0	2.5	blank	1.0	314.7028913497925	2.508707284927368
70	300.0868411064148	pulse	1	t		68.0	2.5	blank	1.0	316.2950646877289	
70	301.00337505340576	fix_post	2		12	68.0	2.5	blank	1.0	317.21159863471985	0.10006070137023926
71	301.103435754776	fix_pre	0		120	69.0	2.5	/experiments/knapen_AOT/AOT_stimuli/rescaled_final/1873_fw.mp4	0.0	317.3116593360901	1.0084519386291504
71	301.6871268749237	pulse	0	t		69.0	2.5	/experiments/knapen_AOT/AOT_stimuli/rescaled_final/1873_fw.mp4	0.0	317.8953504562378	
71	302.11188769340515	movie	1		270	69.0	2.5	/experiments/knapen_AOT/AOT_stimuli/rescaled_final/1873_fw.mp4	0.0	318.32011127471924	2.492065191268921
71	303.2872803211212	pulse	1	t		69.0	2.5	/experiments/knapen_AOT/AOT_stimuli/rescaled_final/1873_fw.mp4	0.0	319.4955039024353	
71	304.6039528846741	fix_post	2		12	69.0	2.5	/experiments/knapen_AOT/AOT_stimuli/rescaled_final/1873_fw.mp4	0.0	320.81217646598816	0.10000109672546387
72	304.70395398139954	fix_pre	0		120	70.0	2.5	/experiments/knapen_AOT/AOT_stimuli/rescaled_final/0758_fw.mp4	0.0	320.9121775627136	1.0085103511810303
72	304.8878402709961	pulse	0	t		70.0	2.5	/experiments/knapen_AOT/AOT_stimuli/rescaled_final/0758_fw.mp4	0.0	321.0960638523102	
72	305.71246433258057	movie	1		281	70.0	2.5	/experiments/knapen_AOT/AOT_stimuli/rescaled_final/0758_fw.mp4	0.0	321.92068791389465	2.491994619369507
72	306.48690152168274	pulse	1	t		70.0	2.5	/experiments/knapen_AOT/AOT_stimuli/rescaled_final/0758_fw.mp4	0.0	322.6951251029968	
72	308.08798456192017	pulse	1	t		70.0	2.5	/experiments/knapen_AOT/AOT_stimuli/rescaled_final/0758_fw.mp4	0.0	324.29620814323425	
72	308.2044589519501	fix_post	2		12	70.0	2.5	/experiments/knapen_AOT/AOT_stimuli/rescaled_final/0758_fw.mp4	0.0	324.41268253326416	0.10008764266967773
73	308.30454659461975	fix_pre	0		120	71.0	2.5	/experiments/knapen_AOT/AOT_stimuli/rescaled_final/0457_rv.mp4	0.0	324.51277017593384	1.0084257125854492
73	309.3129723072052	movie	1		274	71.0	2.5	/experiments/knapen_AOT/AOT_stimuli/rescaled_final/0457_rv.mp4	0.0	325.5211958885193	2.4920318126678467
73	309.68795680999756	pulse	1	t		71.0	2.5	/experiments/knapen_AOT/AOT_stimuli/rescaled_final/0457_rv.mp4	0.0	325.89618039131165	
73	311.28633856773376	pulse	1	t		71.0	2.5	/experiments/knapen_AOT/AOT_stimuli/rescaled_final/0457_rv.mp4	0.0	327.49456214904785	
73	311.80500411987305	fix_post	2		12	71.0	2.5	/experiments/knapen_AOT/AOT_stimuli/rescaled_final/0457_rv.mp4	0.0	328.01322770118713	0.10002875328063965
74	311.9050328731537	fix_pre	0		119	72.0	2.5	/experiments/knapen_AOT/AOT_stimuli/rescaled_final/1580_fw.mp4	0.0	328.1132564544678	1.0001332759857178
74	312.8888382911682	pulse	0	t		72.0	2.5	/experiments/knapen_AOT/AOT_stimuli/rescaled_final/1580_fw.mp4	0.0	329.0970618724823	
74	312.9051661491394	movie	1		280	72.0	2.5	/experiments/knapen_AOT/AOT_stimuli/rescaled_final/1580_fw.mp4	0.0	329.1133897304535	2.5005316734313965
74	314.4873206615448	pulse	1	t		72.0	2.5	/experiments/knapen_AOT/AOT_stimuli/rescaled_final/1580_fw.mp4	0.0	330.6955442428589	
74	315.4056978225708	fix_post	2		12	72.0	2.5	/experiments/knapen_AOT/AOT_stimuli/rescaled_final/1580_fw.mp4	0.0	331.6139214038849	0.09989619255065918
75	315.50559401512146	fix_pre	0		120	73.0	2.5	/experiments/knapen_AOT/AOT_stimuli/rescaled_final/0677_rv.mp4	0.0	331.71381759643555	1.0084810256958008
75	316.08918952941895	pulse	0	t		73.0	2.5	/experiments/knapen_AOT/AOT_stimuli/rescaled_final/0677_rv.mp4	0.0	332.29741311073303	
75	316.51407504081726	movie	1		288	73.0	2.5	/experiments/knapen_AOT/AOT_stimuli/rescaled_final/0677_rv.mp4	0.0	332.72229862213135	2.4920132160186768
75	317.6875023841858	pulse	1	t		73.0	2.5	/experiments/knapen_AOT/AOT_stimuli/rescaled_final/0677_rv.mp4	0.0	333.8957259654999	
75	319.00608825683594	fix_post	2		12	73.0	2.5	/experiments/knapen_AOT/AOT_stimuli/rescaled_final/0677_rv.mp4	0.0	335.21431183815	0.10006904602050781
76	319.10615730285645	fix_pre	0		120	74.0	2.5	/experiments/knapen_AOT/AOT_stimuli/rescaled_final/1905_rv.mp4	0.0	335.31438088417053	1.008549690246582
76	319.2897253036499	pulse	0	t		74.0	2.5	/experiments/knapen_AOT/AOT_stimuli/rescaled_final/1905_rv.mp4	0.0	335.497948884964	
76	320.114706993103	movie	1		261	74.0	2.5	/experiments/knapen_AOT/AOT_stimuli/rescaled_final/1905_rv.mp4	0.0	336.3229305744171	2.4919464588165283
76	320.8908922672272	pulse	1	t		74.0	2.5	/experiments/knapen_AOT/AOT_stimuli/rescaled_final/1905_rv.mp4	0.0	337.09911584854126	
76	322.4903795719147	pulse	1	t		74.0	2.5	/experiments/knapen_AOT/AOT_stimuli/rescaled_final/1905_rv.mp4	0.0	338.69860315322876	
76	322.60665345191956	fix_post	2		12	74.0	2.5	/experiments/knapen_AOT/AOT_stimuli/rescaled_final/1905_rv.mp4	0.0	338.81487703323364	0.10000443458557129
77	322.7066578865051	fix_pre	0		120	75.0	2.5	/experiments/knapen_AOT/AOT_stimuli/rescaled_final/0007_fw.mp4	0.0	338.9148814678192	1.0084996223449707
77	323.7151575088501	movie	1		267	75.0	2.5	/experiments/knapen_AOT/AOT_stimuli/rescaled_final/0007_fw.mp4	0.0	339.9233810901642	2.492043972015381
77	324.09077167510986	pulse	1	t		75.0	2.5	/experiments/knapen_AOT/AOT_stimuli/rescaled_final/0007_fw.mp4	0.0	340.29899525642395	
77	325.6900272369385	pulse	1	t		75.0	2.5	/experiments/knapen_AOT/AOT_stimuli/rescaled_final/0007_fw.mp4	0.0	341.89825081825256	
77	326.2072014808655	fix_post	2		12	75.0	2.5	/experiments/knapen_AOT/AOT_stimuli/rescaled_final/0007_fw.mp4	0.0	342.41542506217957	0.09998464584350586
78	326.307186126709	fix_pre	0		119	76.0	2.5	/experiments/knapen_AOT/AOT_stimuli/rescaled_final/0072_rv.mp4	0.0	342.51540970802307	1.0001790523529053
78	327.29107427597046	pulse	0	t		76.0	2.5	/experiments/knapen_AOT/AOT_stimuli/rescaled_final/0072_rv.mp4	0.0	343.49929785728455	
78	327.3073651790619	movie	1		276	76.0	2.5	/experiments/knapen_AOT/AOT_stimuli/rescaled_final/0072_rv.mp4	0.0	343.515588760376	2.5004091262817383
78	328.88973116874695	pulse	1	t		76.0	2.5	/experiments/knapen_AOT/AOT_stimuli/rescaled_final/0072_rv.mp4	0.0	345.09795475006104	
78	329.8077743053436	fix_post	2		12	76.0	2.5	/experiments/knapen_AOT/AOT_stimuli/rescaled_final/0072_rv.mp4	0.0	346.0159978866577	0.0999603271484375
79	329.90773463249207	fix_pre	0		120	77.0	2.5	blank	1.0	346.11595821380615	1.0001461505889893
79	330.49136424064636	pulse	0	t		77.0	2.5	blank	1.0	346.69958782196045	
79	330.90788078308105	movie	1		300	77.0	2.5	blank	1.0	347.11610436439514	2.5003693103790283
79	332.09168767929077	pulse	1	t		77.0	2.5	blank	1.0	348.29991126060486	
79	333.4082500934601	fix_post	2		12	77.0	2.5	blank	1.0	349.61647367477417	0.10003304481506348
80	333.50828313827515	fix_pre	0		120	78.0	2.5	/experiments/knapen_AOT/AOT_stimuli/rescaled_final/1751_rv.mp4	0.0	349.71650671958923	1.0084669589996338
80	333.6919255256653	pulse	0	t		78.0	2.5	/experiments/knapen_AOT/AOT_stimuli/rescaled_final/1751_rv.mp4	0.0	349.90014910697937	
80	334.5167500972748	movie	1		274	78.0	2.5	/experiments/knapen_AOT/AOT_stimuli/rescaled_final/1751_rv.mp4	0.0	350.72497367858887	2.4921040534973145
80	335.2900969982147	pulse	1	t		78.0	2.5	/experiments/knapen_AOT/AOT_stimuli/rescaled_final/1751_rv.mp4	0.0	351.4983205795288	
80	336.8906168937683	pulse	1	t		78.0	2.5	/experiments/knapen_AOT/AOT_stimuli/rescaled_final/1751_rv.mp4	0.0	353.0988404750824	
80	337.0088541507721	fix_post	2		12	78.0	2.5	/experiments/knapen_AOT/AOT_stimuli/rescaled_final/1751_rv.mp4	0.0	353.2170777320862	0.09997296333312988
81	337.1088271141052	fix_pre	0		120	79.0	2.5	/experiments/knapen_AOT/AOT_stimuli/rescaled_final/0367_rv.mp4	0.0	353.3170506954193	1.0084586143493652
81	338.1172857284546	movie	1		284	79.0	2.5	/experiments/knapen_AOT/AOT_stimuli/rescaled_final/0367_rv.mp4	0.0	354.3255093097687	2.492048501968384
81	338.49098443984985	pulse	1	t		79.0	2.5	/experiments/knapen_AOT/AOT_stimuli/rescaled_final/0367_rv.mp4	0.0	354.69920802116394	
81	340.0912320613861	pulse	1	t		79.0	2.5	/experiments/knapen_AOT/AOT_stimuli/rescaled_final/0367_rv.mp4	0.0	356.2994556427002	
81	340.609334230423	fix_post	2		12	79.0	2.5	/experiments/knapen_AOT/AOT_stimuli/rescaled_final/0367_rv.mp4	0.0	356.81755781173706	0.10002541542053223
82	340.7093596458435	fix_pre	0		119	80.0	2.5	/experiments/knapen_AOT/AOT_stimuli/rescaled_final/2027_rv.mp4	0.0	356.9175832271576	1.0002105236053467
82	341.6930959224701	pulse	0	t		80.0	2.5	/experiments/knapen_AOT/AOT_stimuli/rescaled_final/2027_rv.mp4	0.0	357.9013195037842	
82	341.70957016944885	movie	1		276	80.0	2.5	/experiments/knapen_AOT/AOT_stimuli/rescaled_final/2027_rv.mp4	0.0	357.91779375076294	2.5003180503845215
82	343.29186820983887	pulse	1	t		80.0	2.5	/experiments/knapen_AOT/AOT_stimuli/rescaled_final/2027_rv.mp4	0.0	359.50009179115295	
82	344.2098882198334	fix_post	2		12	80.0	2.5	/experiments/knapen_AOT/AOT_stimuli/rescaled_final/2027_rv.mp4	0.0	360.41811180114746	0.10004305839538574
83	344.30993127822876	fix_pre	0		120	81.0	2.5	/experiments/knapen_AOT/AOT_stimuli/rescaled_final/0103_rv.mp4	0.0	360.51815485954285	1.0085101127624512
83	344.89355206489563	pulse	0	t		81.0	2.5	/experiments/knapen_AOT/AOT_stimuli/rescaled_final/0103_rv.mp4	0.0	361.1017756462097	
83	345.3184413909912	movie	1		277	81.0	2.5	/experiments/knapen_AOT/AOT_stimuli/rescaled_final/0103_rv.mp4	0.0	361.5266649723053	2.4919795989990234
83	346.49271845817566	pulse	1	t		81.0	2.5	/experiments/knapen_AOT/AOT_stimuli/rescaled_final/0103_rv.mp4	0.0	362.70094203948975	
83	347.81042098999023	fix_post	2		12	81.0	2.5	/experiments/knapen_AOT/AOT_stimuli/rescaled_final/0103_rv.mp4	0.0	364.0186445713043	0.10004687309265137
84	347.9104678630829	fix_pre	0		120	82.0	2.5	blank	1.0	364.118691444397	1.0001320838928223
84	348.0940525531769	pulse	0	t		82.0	2.5	blank	1.0	364.30227613449097	
84	348.9105999469757	movie	1		300	82.0	2.5	blank	1.0	365.1188235282898	2.5003886222839355
84	349.68655371665955	pulse	1	t		82.0	2.5	blank	1.0	365.89477729797363	
84	351.28659868240356	pulse	1	t		82.0	2.5	blank	1.0	367.49482226371765	
84	351.41098856925964	fix_post	2		12	82.0	2.5	blank	1.0	367.61921215057373	0.10002851486206055
85	351.5110170841217	fix_pre	0		120	83.0	2.5	/experiments/knapen_AOT/AOT_stimuli/rescaled_final/1995_fw.mp4	0.0	367.7192406654358	1.0084826946258545
85	352.51949977874756	movie	1		289	83.0	2.5	/experiments/knapen_AOT/AOT_stimuli/rescaled_final/1995_fw.mp4	0.0	368.72772336006165	2.492056369781494
85	352.8868317604065	pulse	1	t		83.0	2.5	/experiments/knapen_AOT/AOT_stimuli/rescaled_final/1995_fw.mp4	0.0	369.0950553417206	
85	354.48669481277466	pulse	1	t		83.0	2.5	/experiments/knapen_AOT/AOT_stimuli/rescaled_final/1995_fw.mp4	0.0	370.69491839408875	
85	355.01155614852905	fix_post	2		12	83.0	2.5	/experiments/knapen_AOT/AOT_stimuli/rescaled_final/1995_fw.mp4	0.0	371.21977972984314	0.09992551803588867
87	355.11148166656494	stim	0		1716					371.319705247879	14.302199602127075
87	356.08688378334045	pulse	0	t						372.29510736465454	
87	357.68811535835266	pulse	0	t						373.89633893966675	
87	359.28778553009033	pulse	0	t						375.4960091114044	
87	360.8879723548889	pulse	0	t						377.096195936203	
87	362.48812890052795	pulse	0	t						378.69635248184204	
87	364.0881521701813	pulse	0	t						380.29637575149536	
87	365.68836879730225	pulse	0	t						381.89659237861633	
87	367.2885353565216	pulse	0	t						383.4967589378357	
87	368.88878560066223	pulse	0	t						385.0970091819763	
