trial_nr	onset	event_type	phase	response	nr_frames	movie_index	movie_duration	movie_file	blank	onset_abs	duration
0	0.14950895309448242	stim	0		113					22.16246509552002	0.9420440196990967
0	1.0837318897247314	response	0	space						23.09668803215027	
1	1.091552972793579	stim	0		11440					23.104509115219116	95.33254504203796
1	96.41867089271545	pulse	0	t						118.43162703514099	
1	96.42409801483154	stim	1		1717					118.43705415725708	14.308631896972656
1	98.01601386070251	pulse	1	t						120.02897000312805	
1	99.61624097824097	pulse	1	t						121.6291971206665	
1	101.21624302864075	pulse	1	t						123.22919917106628	
1	102.8162670135498	pulse	1	t						124.82922315597534	
1	104.41616797447205	pulse	1	t						126.42912411689758	
1	106.01617288589478	pulse	1	t						128.0291290283203	
1	107.6161618232727	pulse	1	t						129.62911796569824	
1	109.21622586250305	pulse	1	t						131.2291820049286	
2	110.7327299118042	fix_pre	0		11	0.0	2.5	/experiments/AOT/AOT_stimuli/rescaled_final/1249_rv.mp4	0.0	132.74568605422974	0.09156608581542969
2	110.81618690490723	pulse	0	t		0.0	2.5	/experiments/AOT/AOT_stimuli/rescaled_final/1249_rv.mp4	0.0	132.82914304733276	
2	110.82429599761963	movie	1		245	0.0	2.5	/experiments/AOT/AOT_stimuli/rescaled_final/1249_rv.mp4	0.0	132.83725214004517	2.5083999633789062
2	112.41558790206909	pulse	1	t		0.0	2.5	/experiments/AOT/AOT_stimuli/rescaled_final/1249_rv.mp4	0.0	134.42854404449463	
2	113.33269596099854	fix_post	2		12	0.0	2.5	/experiments/AOT/AOT_stimuli/rescaled_final/1249_rv.mp4	0.0	135.34565210342407	0.09990286827087402
3	113.43259882926941	fix_pre	0		120	1.0	2.5	/experiments/AOT/AOT_stimuli/rescaled_final/0075_fw.mp4	0.0	135.44555497169495	1.0000460147857666
3	114.01618790626526	pulse	0	t		1.0	2.5	/experiments/AOT/AOT_stimuli/rescaled_final/0075_fw.mp4	0.0	136.0291440486908	
3	114.43264484405518	movie	1		244	1.0	2.5	/experiments/AOT/AOT_stimuli/rescaled_final/0075_fw.mp4	0.0	136.4456009864807	2.5000879764556885
3	115.61624097824097	pulse	1	t		1.0	2.5	/experiments/AOT/AOT_stimuli/rescaled_final/0075_fw.mp4	0.0	137.6291971206665	
3	116.93273282051086	fix_post	2		12	1.0	2.5	/experiments/AOT/AOT_stimuli/rescaled_final/0075_fw.mp4	0.0	138.9456889629364	0.09995007514953613
4	117.0326828956604	fix_pre	0		120	2.0	2.5	/experiments/AOT/AOT_stimuli/rescaled_final/0357_rv.mp4	0.0	139.04563903808594	0.9999630451202393
4	117.21617197990417	pulse	0	t		2.0	2.5	/experiments/AOT/AOT_stimuli/rescaled_final/0357_rv.mp4	0.0	139.2291281223297	
4	118.03264594078064	movie	1		244	2.0	2.5	/experiments/AOT/AOT_stimuli/rescaled_final/0357_rv.mp4	0.0	140.04560208320618	2.4996190071105957
4	118.81612491607666	pulse	1	t		2.0	2.5	/experiments/AOT/AOT_stimuli/rescaled_final/0357_rv.mp4	0.0	140.8290810585022	
4	120.41440391540527	pulse	1	t		2.0	2.5	/experiments/AOT/AOT_stimuli/rescaled_final/0357_rv.mp4	0.0	142.4273600578308	
4	120.53226494789124	fix_post	2		12	2.0	2.5	/experiments/AOT/AOT_stimuli/rescaled_final/0357_rv.mp4	0.0	142.54522109031677	0.10040092468261719
5	120.63266587257385	fix_pre	0		120	3.0	2.5	/experiments/AOT/AOT_stimuli/rescaled_final/1660_fw.mp4	0.0	142.6456220149994	0.9999210834503174
5	121.63258695602417	movie	1		244	3.0	2.5	/experiments/AOT/AOT_stimuli/rescaled_final/1660_fw.mp4	0.0	143.6455430984497	2.500035047531128
5	122.01578998565674	pulse	1	t		3.0	2.5	/experiments/AOT/AOT_stimuli/rescaled_final/1660_fw.mp4	0.0	144.02874612808228	
5	123.61613297462463	pulse	1	t		3.0	2.5	/experiments/AOT/AOT_stimuli/rescaled_final/1660_fw.mp4	0.0	145.62908911705017	
5	124.1326220035553	fix_post	2		12	3.0	2.5	/experiments/AOT/AOT_stimuli/rescaled_final/1660_fw.mp4	0.0	146.14557814598083	0.09996700286865234
6	124.23258900642395	fix_pre	0		119	4.0	2.5	/experiments/AOT/AOT_stimuli/rescaled_final/0381_rv.mp4	0.0	146.2455451488495	0.99167799949646
6	125.21615695953369	pulse	0	t		4.0	2.5	/experiments/AOT/AOT_stimuli/rescaled_final/0381_rv.mp4	0.0	147.22911310195923	
6	125.22426700592041	movie	1		247	4.0	2.5	/experiments/AOT/AOT_stimuli/rescaled_final/0381_rv.mp4	0.0	147.23722314834595	2.5079429149627686
6	126.8156189918518	pulse	1	t		4.0	2.5	/experiments/AOT/AOT_stimuli/rescaled_final/0381_rv.mp4	0.0	148.82857513427734	
6	127.73220992088318	fix_post	2		12	4.0	2.5	/experiments/AOT/AOT_stimuli/rescaled_final/0381_rv.mp4	0.0	149.74516606330872	0.1003580093383789
7	127.83256793022156	fix_pre	0		120	5.0	2.5	/experiments/AOT/AOT_stimuli/rescaled_final/1797_rv.mp4	0.0	149.8455240726471	1.0000550746917725
7	128.41615295410156	pulse	0	t		5.0	2.5	/experiments/AOT/AOT_stimuli/rescaled_final/1797_rv.mp4	0.0	150.4291090965271	
7	128.83262300491333	movie	1		246	5.0	2.5	/experiments/AOT/AOT_stimuli/rescaled_final/1797_rv.mp4	0.0	150.84557914733887	2.4999468326568604
7	130.01611590385437	pulse	1	t		5.0	2.5	/experiments/AOT/AOT_stimuli/rescaled_final/1797_rv.mp4	0.0	152.0290720462799	
7	131.3325698375702	fix_post	2		12	5.0	2.5	/experiments/AOT/AOT_stimuli/rescaled_final/1797_rv.mp4	0.0	153.34552597999573	0.10000896453857422
8	131.43257880210876	fix_pre	0		120	6.0	2.5	/experiments/AOT/AOT_stimuli/rescaled_final/1660_fw.mp4	0.0	153.4455349445343	0.9999711513519287
8	131.61606001853943	pulse	0	t		6.0	2.5	/experiments/AOT/AOT_stimuli/rescaled_final/1660_fw.mp4	0.0	153.62901616096497	
8	132.4325499534607	movie	1		245	6.0	2.5	/experiments/AOT/AOT_stimuli/rescaled_final/1660_fw.mp4	0.0	154.44550609588623	2.500001907348633
8	133.21608781814575	pulse	1	t		6.0	2.5	/experiments/AOT/AOT_stimuli/rescaled_final/1660_fw.mp4	0.0	155.2290439605713	
8	134.81471395492554	pulse	1	t		6.0	2.5	/experiments/AOT/AOT_stimuli/rescaled_final/1660_fw.mp4	0.0	156.82767009735107	
8	134.93255186080933	fix_post	2		12	6.0	2.5	/experiments/AOT/AOT_stimuli/rescaled_final/1660_fw.mp4	0.0	156.94550800323486	0.09998703002929688
9	135.03253889083862	fix_pre	0		120	7.0	2.5	blank	1.0	157.04549503326416	0.9999899864196777
9	136.0325288772583	movie	1		300	7.0	2.5	blank	1.0	158.04548501968384	2.4999330043792725
9	136.4160988330841	pulse	1	t		7.0	2.5	blank	1.0	158.42905497550964	
9	138.0160539150238	pulse	1	t		7.0	2.5	blank	1.0	160.02901005744934	
9	138.53246188163757	fix_post	2		12	7.0	2.5	blank	1.0	160.5454180240631	0.1000981330871582
10	138.63256001472473	fix_pre	0		119	8.0	2.5	/experiments/AOT/AOT_stimuli/rescaled_final/0800_rv.mp4	0.0	160.64551615715027	0.9916129112243652
10	139.6159429550171	pulse	0	t		8.0	2.5	/experiments/AOT/AOT_stimuli/rescaled_final/0800_rv.mp4	0.0	161.62889909744263	
10	139.6241729259491	movie	1		245	8.0	2.5	/experiments/AOT/AOT_stimuli/rescaled_final/0800_rv.mp4	0.0	161.63712906837463	2.5079429149627686
10	141.21602082252502	pulse	1	t		8.0	2.5	/experiments/AOT/AOT_stimuli/rescaled_final/0800_rv.mp4	0.0	163.22897696495056	
10	142.13211584091187	fix_post	2		12	8.0	2.5	/experiments/AOT/AOT_stimuli/rescaled_final/0800_rv.mp4	0.0	164.1450719833374	0.10039496421813965
11	142.23251080513	fix_pre	0		120	9.0	2.5	/experiments/AOT/AOT_stimuli/rescaled_final/0134_fw.mp4	0.0	164.24546694755554	1.0000200271606445
11	142.81602597236633	pulse	0	t		9.0	2.5	/experiments/AOT/AOT_stimuli/rescaled_final/0134_fw.mp4	0.0	164.82898211479187	
11	143.23253083229065	movie	1		244	9.0	2.5	/experiments/AOT/AOT_stimuli/rescaled_final/0134_fw.mp4	0.0	165.2454869747162	2.500012159347534
11	144.41612195968628	pulse	1	t		9.0	2.5	/experiments/AOT/AOT_stimuli/rescaled_final/0134_fw.mp4	0.0	166.42907810211182	
11	145.73254299163818	fix_post	2		12	9.0	2.5	/experiments/AOT/AOT_stimuli/rescaled_final/0134_fw.mp4	0.0	167.74549913406372	0.09990787506103516
12	145.83245086669922	fix_pre	0		120	10.0	2.5	/experiments/AOT/AOT_stimuli/rescaled_final/1407_fw.mp4	0.0	167.84540700912476	1.0000090599060059
12	146.01609086990356	pulse	0	t		10.0	2.5	/experiments/AOT/AOT_stimuli/rescaled_final/1407_fw.mp4	0.0	168.0290470123291	
12	146.83245992660522	movie	1		243	10.0	2.5	/experiments/AOT/AOT_stimuli/rescaled_final/1407_fw.mp4	0.0	168.84541606903076	2.5000500679016113
12	147.61600995063782	pulse	1	t		10.0	2.5	/experiments/AOT/AOT_stimuli/rescaled_final/1407_fw.mp4	0.0	169.62896609306335	
12	149.21453380584717	pulse	1	t		10.0	2.5	/experiments/AOT/AOT_stimuli/rescaled_final/1407_fw.mp4	0.0	171.2274899482727	
12	149.33250999450684	fix_post	2		12	10.0	2.5	/experiments/AOT/AOT_stimuli/rescaled_final/1407_fw.mp4	0.0	171.34546613693237	0.09998297691345215
13	149.4324929714203	fix_pre	0		120	11.0	2.5	/experiments/AOT/AOT_stimuli/rescaled_final/1834_fw.mp4	0.0	171.44544911384583	1.0000429153442383
13	150.43253588676453	movie	1		245	11.0	2.5	/experiments/AOT/AOT_stimuli/rescaled_final/1834_fw.mp4	0.0	172.44549202919006	2.499553918838501
13	150.81702995300293	pulse	1	t		11.0	2.5	/experiments/AOT/AOT_stimuli/rescaled_final/1834_fw.mp4	0.0	172.82998609542847	
13	152.41552686691284	pulse	1	t		11.0	2.5	/experiments/AOT/AOT_stimuli/rescaled_final/1834_fw.mp4	0.0	174.42848300933838	
13	152.93208980560303	fix_post	2		12	11.0	2.5	/experiments/AOT/AOT_stimuli/rescaled_final/1834_fw.mp4	0.0	174.94504594802856	0.09997105598449707
14	153.03206086158752	fix_pre	0		119	12.0	2.5	/experiments/AOT/AOT_stimuli/rescaled_final/0157_rv.mp4	0.0	175.04501700401306	0.992272138595581
14	154.01574087142944	pulse	0	t		12.0	2.5	/experiments/AOT/AOT_stimuli/rescaled_final/0157_rv.mp4	0.0	176.02869701385498	
14	154.0243330001831	movie	1		245	12.0	2.5	/experiments/AOT/AOT_stimuli/rescaled_final/0157_rv.mp4	0.0	176.03728914260864	2.508159875869751
14	155.6156358718872	pulse	1	t		12.0	2.5	/experiments/AOT/AOT_stimuli/rescaled_final/0157_rv.mp4	0.0	177.62859201431274	
14	156.53249287605286	fix_post	2		12	12.0	2.5	/experiments/AOT/AOT_stimuli/rescaled_final/0157_rv.mp4	0.0	178.5454490184784	0.10000395774841309
15	156.63249683380127	fix_pre	0		120	13.0	2.5	/experiments/AOT/AOT_stimuli/rescaled_final/1809_rv.mp4	0.0	178.6454529762268	1.000035047531128
15	157.21597695350647	pulse	0	t		13.0	2.5	/experiments/AOT/AOT_stimuli/rescaled_final/1809_rv.mp4	0.0	179.228933095932	
15	157.6325318813324	movie	1		244	13.0	2.5	/experiments/AOT/AOT_stimuli/rescaled_final/1809_rv.mp4	0.0	179.64548802375793	2.4999330043792725
15	158.81596279144287	pulse	1	t		13.0	2.5	/experiments/AOT/AOT_stimuli/rescaled_final/1809_rv.mp4	0.0	180.8289189338684	
15	160.13246488571167	fix_post	2		12	13.0	2.5	/experiments/AOT/AOT_stimuli/rescaled_final/1809_rv.mp4	0.0	182.1454210281372	0.0999751091003418
16	160.232439994812	fix_pre	0		120	14.0	2.5	blank	1.0	182.24539613723755	1.0000128746032715
16	160.41588687896729	pulse	0	t		14.0	2.5	blank	1.0	182.42884302139282	
16	161.23245286941528	movie	1		300	14.0	2.5	blank	1.0	183.24540901184082	2.4999589920043945
16	162.0159409046173	pulse	1	t		14.0	2.5	blank	1.0	184.02889704704285	
16	163.61588191986084	pulse	1	t		14.0	2.5	blank	1.0	185.62883806228638	
16	163.73241186141968	fix_post	2		12	14.0	2.5	blank	1.0	185.74536800384521	0.0999290943145752
17	163.83234095573425	fix_pre	0		120	15.0	2.5	/experiments/AOT/AOT_stimuli/rescaled_final/0857_rv.mp4	0.0	185.8452970981598	1.00006103515625
17	164.8324019908905	movie	1		243	15.0	2.5	/experiments/AOT/AOT_stimuli/rescaled_final/0857_rv.mp4	0.0	186.84535813331604	2.5000088214874268
17	165.21528601646423	pulse	1	t		15.0	2.5	/experiments/AOT/AOT_stimuli/rescaled_final/0857_rv.mp4	0.0	187.22824215888977	
17	166.81579899787903	pulse	1	t		15.0	2.5	/experiments/AOT/AOT_stimuli/rescaled_final/0857_rv.mp4	0.0	188.82875514030457	
17	167.33241081237793	fix_post	2		12	15.0	2.5	/experiments/AOT/AOT_stimuli/rescaled_final/0857_rv.mp4	0.0	189.34536695480347	0.0999910831451416
18	167.43240189552307	fix_pre	0		119	16.0	2.5	/experiments/AOT/AOT_stimuli/rescaled_final/1324_fw.mp4	0.0	189.4453580379486	0.99173903465271
18	168.41586685180664	pulse	0	t		16.0	2.5	/experiments/AOT/AOT_stimuli/rescaled_final/1324_fw.mp4	0.0	190.42882299423218	
18	168.42414093017578	movie	1		245	16.0	2.5	/experiments/AOT/AOT_stimuli/rescaled_final/1324_fw.mp4	0.0	190.43709707260132	2.5082459449768066
18	170.01563692092896	pulse	1	t		16.0	2.5	/experiments/AOT/AOT_stimuli/rescaled_final/1324_fw.mp4	0.0	192.0285930633545	
18	170.9323868751526	fix_post	2		12	16.0	2.5	/experiments/AOT/AOT_stimuli/rescaled_final/1324_fw.mp4	0.0	192.94534301757812	0.09994912147521973
19	171.0323359966278	fix_pre	0		120	17.0	2.5	/experiments/AOT/AOT_stimuli/rescaled_final/1438_fw.mp4	0.0	193.04529213905334	1.0000369548797607
19	171.61589193344116	pulse	0	t		17.0	2.5	/experiments/AOT/AOT_stimuli/rescaled_final/1438_fw.mp4	0.0	193.6288480758667	
19	172.03237295150757	movie	1		246	17.0	2.5	/experiments/AOT/AOT_stimuli/rescaled_final/1438_fw.mp4	0.0	194.0453290939331	2.499922037124634
19	173.2159399986267	pulse	1	t		17.0	2.5	/experiments/AOT/AOT_stimuli/rescaled_final/1438_fw.mp4	0.0	195.22889614105225	
19	174.5322949886322	fix_post	2		12	17.0	2.5	/experiments/AOT/AOT_stimuli/rescaled_final/1438_fw.mp4	0.0	196.54525113105774	0.1000678539276123
20	174.63236284255981	fix_pre	0		120	18.0	2.5	/experiments/AOT/AOT_stimuli/rescaled_final/1390_rv.mp4	0.0	196.64531898498535	0.9999899864196777
20	174.81587886810303	pulse	0	t		18.0	2.5	/experiments/AOT/AOT_stimuli/rescaled_final/1390_rv.mp4	0.0	196.82883501052856	
20	175.6323528289795	movie	1		244	18.0	2.5	/experiments/AOT/AOT_stimuli/rescaled_final/1390_rv.mp4	0.0	197.64530897140503	2.5000791549682617
20	176.41593480110168	pulse	1	t		18.0	2.5	/experiments/AOT/AOT_stimuli/rescaled_final/1390_rv.mp4	0.0	198.42889094352722	
20	178.01453685760498	pulse	1	t		18.0	2.5	/experiments/AOT/AOT_stimuli/rescaled_final/1390_rv.mp4	0.0	200.02749300003052	
20	178.13243198394775	fix_post	2		12	18.0	2.5	/experiments/AOT/AOT_stimuli/rescaled_final/1390_rv.mp4	0.0	200.1453881263733	0.10001301765441895
21	178.23244500160217	fix_pre	0		120	19.0	2.5	/experiments/AOT/AOT_stimuli/rescaled_final/1946_rv.mp4	0.0	200.2454011440277	0.9994728565216064
21	179.23191785812378	movie	1		246	19.0	2.5	/experiments/AOT/AOT_stimuli/rescaled_final/1946_rv.mp4	0.0	201.24487400054932	2.500507116317749
21	179.61587691307068	pulse	1	t		19.0	2.5	/experiments/AOT/AOT_stimuli/rescaled_final/1946_rv.mp4	0.0	201.62883305549622	
21	181.21582579612732	pulse	1	t		19.0	2.5	/experiments/AOT/AOT_stimuli/rescaled_final/1946_rv.mp4	0.0	203.22878193855286	
21	181.73242497444153	fix_post	2		12	19.0	2.5	/experiments/AOT/AOT_stimuli/rescaled_final/1946_rv.mp4	0.0	203.74538111686707	0.09985184669494629
22	181.83227682113647	fix_pre	0		119	20.0	2.5	blank	1.0	203.845232963562	0.9916791915893555
22	182.8160059452057	pulse	0	t		20.0	2.5	blank	1.0	204.82896208763123	
22	182.82395601272583	movie	1		301	20.0	2.5	blank	1.0	204.83691215515137	2.5084269046783447
22	184.41585183143616	pulse	1	t		20.0	2.5	blank	1.0	206.4288079738617	
22	185.33238291740417	fix_post	2		12	20.0	2.5	blank	1.0	207.3453390598297	0.09990096092224121
23	185.43228387832642	fix_pre	0		120	21.0	2.5	/experiments/AOT/AOT_stimuli/rescaled_final/1030_fw.mp4	0.0	207.44524002075195	1.000101089477539
23	186.01586890220642	pulse	0	t		21.0	2.5	/experiments/AOT/AOT_stimuli/rescaled_final/1030_fw.mp4	0.0	208.02882504463196	
23	186.43238496780396	movie	1		243	21.0	2.5	/experiments/AOT/AOT_stimuli/rescaled_final/1030_fw.mp4	0.0	208.4453411102295	2.499940872192383
23	187.61596989631653	pulse	1	t		21.0	2.5	/experiments/AOT/AOT_stimuli/rescaled_final/1030_fw.mp4	0.0	209.62892603874207	
23	188.93232583999634	fix_post	2		12	21.0	2.5	/experiments/AOT/AOT_stimuli/rescaled_final/1030_fw.mp4	0.0	210.94528198242188	0.09999418258666992
24	189.032320022583	fix_pre	0		120	22.0	2.5	/experiments/AOT/AOT_stimuli/rescaled_final/1847_rv.mp4	0.0	211.04527616500854	1.0000159740447998
24	189.2156958580017	pulse	0	t		22.0	2.5	/experiments/AOT/AOT_stimuli/rescaled_final/1847_rv.mp4	0.0	211.22865200042725	
24	190.0323359966278	movie	1		244	22.0	2.5	/experiments/AOT/AOT_stimuli/rescaled_final/1847_rv.mp4	0.0	212.04529213905334	2.499912977218628
24	190.8157618045807	pulse	1	t		22.0	2.5	/experiments/AOT/AOT_stimuli/rescaled_final/1847_rv.mp4	0.0	212.82871794700623	
24	192.41435980796814	pulse	1	t		22.0	2.5	/experiments/AOT/AOT_stimuli/rescaled_final/1847_rv.mp4	0.0	214.42731595039368	
24	192.53224897384644	fix_post	2		12	22.0	2.5	/experiments/AOT/AOT_stimuli/rescaled_final/1847_rv.mp4	0.0	214.54520511627197	0.10009288787841797
25	192.63234186172485	fix_pre	0		120	23.0	2.5	/experiments/AOT/AOT_stimuli/rescaled_final/1372_fw.mp4	0.0	214.6452980041504	0.9994421005249023
25	193.63178396224976	movie	1		244	23.0	2.5	/experiments/AOT/AOT_stimuli/rescaled_final/1372_fw.mp4	0.0	215.6447401046753	2.500066041946411
25	194.017098903656	pulse	1	t		23.0	2.5	/experiments/AOT/AOT_stimuli/rescaled_final/1372_fw.mp4	0.0	216.03005504608154	
25	195.61572885513306	pulse	1	t		23.0	2.5	/experiments/AOT/AOT_stimuli/rescaled_final/1372_fw.mp4	0.0	217.6286849975586	
25	196.13185000419617	fix_post	2		12	23.0	2.5	/experiments/AOT/AOT_stimuli/rescaled_final/1372_fw.mp4	0.0	218.1448061466217	0.1005549430847168
26	196.23240494728088	fix_pre	0		119	24.0	2.5	/experiments/AOT/AOT_stimuli/rescaled_final/1946_rv.mp4	0.0	218.24536108970642	0.9915049076080322
26	197.21575498580933	pulse	0	t		24.0	2.5	/experiments/AOT/AOT_stimuli/rescaled_final/1946_rv.mp4	0.0	219.22871112823486	
26	197.22390985488892	movie	1		246	24.0	2.5	/experiments/AOT/AOT_stimuli/rescaled_final/1946_rv.mp4	0.0	219.23686599731445	2.5084221363067627
26	198.8168079853058	pulse	1	t		24.0	2.5	/experiments/AOT/AOT_stimuli/rescaled_final/1946_rv.mp4	0.0	220.82976412773132	
26	199.73233199119568	fix_post	2		12	24.0	2.5	/experiments/AOT/AOT_stimuli/rescaled_final/1946_rv.mp4	0.0	221.74528813362122	0.09991598129272461
27	199.8322479724884	fix_pre	0		120	25.0	2.5	/experiments/AOT/AOT_stimuli/rescaled_final/0213_fw.mp4	0.0	221.84520411491394	0.9999890327453613
27	200.41568684577942	pulse	0	t		25.0	2.5	/experiments/AOT/AOT_stimuli/rescaled_final/0213_fw.mp4	0.0	222.42864298820496	
27	200.83223700523376	movie	1		245	25.0	2.5	/experiments/AOT/AOT_stimuli/rescaled_final/0213_fw.mp4	0.0	222.8451931476593	2.5000078678131104
27	202.01585292816162	pulse	1	t		25.0	2.5	/experiments/AOT/AOT_stimuli/rescaled_final/0213_fw.mp4	0.0	224.02880907058716	
27	203.33224487304688	fix_post	2		12	25.0	2.5	/experiments/AOT/AOT_stimuli/rescaled_final/0213_fw.mp4	0.0	225.3452010154724	0.10002708435058594
28	203.43227195739746	fix_pre	0		120	26.0	2.5	/experiments/AOT/AOT_stimuli/rescaled_final/0326_fw.mp4	0.0	225.445228099823	0.9995009899139404
28	203.6157398223877	pulse	0	t		26.0	2.5	/experiments/AOT/AOT_stimuli/rescaled_final/0326_fw.mp4	0.0	225.62869596481323	
28	204.4317729473114	movie	1		244	26.0	2.5	/experiments/AOT/AOT_stimuli/rescaled_final/0326_fw.mp4	0.0	226.44472908973694	2.5005009174346924
28	205.21564602851868	pulse	1	t		26.0	2.5	/experiments/AOT/AOT_stimuli/rescaled_final/0326_fw.mp4	0.0	227.2286021709442	
28	206.81521797180176	pulse	1	t		26.0	2.5	/experiments/AOT/AOT_stimuli/rescaled_final/0326_fw.mp4	0.0	228.8281741142273	
28	206.9322738647461	fix_post	2		12	26.0	2.5	/experiments/AOT/AOT_stimuli/rescaled_final/0326_fw.mp4	0.0	228.94523000717163	0.1000509262084961
29	207.0323247909546	fix_pre	0		120	27.0	2.5	blank	1.0	229.04528093338013	0.9995012283325195
29	208.0318260192871	movie	1		300	27.0	2.5	blank	1.0	230.04478216171265	2.500685930252075
29	208.4153769016266	pulse	1	t		27.0	2.5	blank	1.0	230.42833304405212	
29	210.01554989814758	pulse	1	t		27.0	2.5	blank	1.0	232.02850604057312	
29	210.53251194953918	fix_post	2		12	27.0	2.5	blank	1.0	232.54546809196472	0.09995698928833008
30	210.63246893882751	fix_pre	0		119	28.0	2.5	/experiments/AOT/AOT_stimuli/rescaled_final/0508_rv.mp4	0.0	232.64542508125305	0.9914000034332275
30	211.61567902565002	pulse	0	t		28.0	2.5	/experiments/AOT/AOT_stimuli/rescaled_final/0508_rv.mp4	0.0	233.62863516807556	
30	211.62386894226074	movie	1		249	28.0	2.5	/experiments/AOT/AOT_stimuli/rescaled_final/0508_rv.mp4	0.0	233.63682508468628	2.5083630084991455
30	213.2151598930359	pulse	1	t		28.0	2.5	/experiments/AOT/AOT_stimuli/rescaled_final/0508_rv.mp4	0.0	235.22811603546143	
30	214.1322319507599	fix_post	2		12	28.0	2.5	/experiments/AOT/AOT_stimuli/rescaled_final/0508_rv.mp4	0.0	236.14518809318542	0.09989595413208008
31	214.23212790489197	fix_pre	0		120	29.0	2.5	/experiments/AOT/AOT_stimuli/rescaled_final/1658_rv.mp4	0.0	236.2450840473175	1.0000181198120117
31	214.81562495231628	pulse	0	t		29.0	2.5	/experiments/AOT/AOT_stimuli/rescaled_final/1658_rv.mp4	0.0	236.82858109474182	
31	215.23214602470398	movie	1		248	29.0	2.5	/experiments/AOT/AOT_stimuli/rescaled_final/1658_rv.mp4	0.0	237.24510216712952	2.500074863433838
31	216.41565585136414	pulse	1	t		29.0	2.5	/experiments/AOT/AOT_stimuli/rescaled_final/1658_rv.mp4	0.0	238.42861199378967	
31	217.73222088813782	fix_post	2		12	29.0	2.5	/experiments/AOT/AOT_stimuli/rescaled_final/1658_rv.mp4	0.0	239.74517703056335	0.10000896453857422
32	217.8322298526764	fix_pre	0		120	30.0	2.5	/experiments/AOT/AOT_stimuli/rescaled_final/1164_fw.mp4	0.0	239.84518599510193	0.9999589920043945
32	218.0156638622284	pulse	0	t		30.0	2.5	/experiments/AOT/AOT_stimuli/rescaled_final/1164_fw.mp4	0.0	240.02862000465393	
32	218.8321888446808	movie	1		244	30.0	2.5	/experiments/AOT/AOT_stimuli/rescaled_final/1164_fw.mp4	0.0	240.84514498710632	2.4999539852142334
32	219.61559295654297	pulse	1	t		30.0	2.5	/experiments/AOT/AOT_stimuli/rescaled_final/1164_fw.mp4	0.0	241.6285490989685	
32	221.21397280693054	pulse	1	t		30.0	2.5	/experiments/AOT/AOT_stimuli/rescaled_final/1164_fw.mp4	0.0	243.22692894935608	
32	221.33214282989502	fix_post	2		12	30.0	2.5	/experiments/AOT/AOT_stimuli/rescaled_final/1164_fw.mp4	0.0	243.34509897232056	0.09999203681945801
33	221.43213486671448	fix_pre	0		120	31.0	2.5	/experiments/AOT/AOT_stimuli/rescaled_final/0029_rv.mp4	0.0	243.44509100914001	1.0000660419464111
33	222.4322009086609	movie	1		246	31.0	2.5	/experiments/AOT/AOT_stimuli/rescaled_final/0029_rv.mp4	0.0	244.44515705108643	2.4995439052581787
33	222.81546783447266	pulse	1	t		31.0	2.5	/experiments/AOT/AOT_stimuli/rescaled_final/0029_rv.mp4	0.0	244.8284239768982	
33	224.41549801826477	pulse	1	t		31.0	2.5	/experiments/AOT/AOT_stimuli/rescaled_final/0029_rv.mp4	0.0	246.4284541606903	
33	224.93174481391907	fix_post	2		12	31.0	2.5	/experiments/AOT/AOT_stimuli/rescaled_final/0029_rv.mp4	0.0	246.9447009563446	0.10043716430664062
34	225.0321819782257	fix_pre	0		119	32.0	2.5	/experiments/AOT/AOT_stimuli/rescaled_final/1969_fw.mp4	0.0	247.04513812065125	0.9915728569030762
34	226.01562094688416	pulse	0	t		32.0	2.5	/experiments/AOT/AOT_stimuli/rescaled_final/1969_fw.mp4	0.0	248.0285770893097	
34	226.02375483512878	movie	1		245	32.0	2.5	/experiments/AOT/AOT_stimuli/rescaled_final/1969_fw.mp4	0.0	248.03671097755432	2.508327007293701
34	227.6151638031006	pulse	1	t		32.0	2.5	/experiments/AOT/AOT_stimuli/rescaled_final/1969_fw.mp4	0.0	249.62811994552612	
34	228.53208184242249	fix_post	2		12	32.0	2.5	/experiments/AOT/AOT_stimuli/rescaled_final/1969_fw.mp4	0.0	250.54503798484802	0.10001301765441895
35	228.6320948600769	fix_pre	0		120	33.0	2.5	blank	1.0	250.64505100250244	1.0000431537628174
35	229.21553492546082	pulse	0	t		33.0	2.5	blank	1.0	251.22849106788635	
35	229.63213801383972	movie	1		300	33.0	2.5	blank	1.0	251.64509415626526	2.4999608993530273
35	230.8155698776245	pulse	1	t		33.0	2.5	blank	1.0	252.82852602005005	
35	232.13209891319275	fix_post	2		12	33.0	2.5	blank	1.0	254.1450550556183	0.09999799728393555
36	232.23209691047668	fix_pre	0		120	34.0	2.5	/experiments/AOT/AOT_stimuli/rescaled_final/1763_rv.mp4	0.0	254.24505305290222	1.0000360012054443
36	232.4155879020691	pulse	0	t		34.0	2.5	/experiments/AOT/AOT_stimuli/rescaled_final/1763_rv.mp4	0.0	254.42854404449463	
36	233.23213291168213	movie	1		244	34.0	2.5	/experiments/AOT/AOT_stimuli/rescaled_final/1763_rv.mp4	0.0	255.24508905410767	2.499901056289673
36	234.01556396484375	pulse	1	t		34.0	2.5	/experiments/AOT/AOT_stimuli/rescaled_final/1763_rv.mp4	0.0	256.0285201072693	
36	235.613933801651	pulse	1	t		34.0	2.5	/experiments/AOT/AOT_stimuli/rescaled_final/1763_rv.mp4	0.0	257.62688994407654	
36	235.7320339679718	fix_post	2		12	34.0	2.5	/experiments/AOT/AOT_stimuli/rescaled_final/1763_rv.mp4	0.0	257.74499011039734	0.10002303123474121
37	235.83205699920654	fix_pre	0		120	35.0	2.5	/experiments/AOT/AOT_stimuli/rescaled_final/1658_fw.mp4	0.0	257.8450131416321	0.9999539852142334
37	236.83201098442078	movie	1		247	35.0	2.5	/experiments/AOT/AOT_stimuli/rescaled_final/1658_fw.mp4	0.0	258.8449671268463	2.50008487701416
37	237.2148950099945	pulse	1	t		35.0	2.5	/experiments/AOT/AOT_stimuli/rescaled_final/1658_fw.mp4	0.0	259.22785115242004	
37	238.81558799743652	pulse	1	t		35.0	2.5	/experiments/AOT/AOT_stimuli/rescaled_final/1658_fw.mp4	0.0	260.82854413986206	
37	239.33209586143494	fix_post	2		12	35.0	2.5	/experiments/AOT/AOT_stimuli/rescaled_final/1658_fw.mp4	0.0	261.3450520038605	0.10000205039978027
38	239.43209791183472	fix_pre	0		119	36.0	2.5	/experiments/AOT/AOT_stimuli/rescaled_final/1476_fw.mp4	0.0	261.44505405426025	0.9915659427642822
38	240.41553592681885	pulse	0	t		36.0	2.5	/experiments/AOT/AOT_stimuli/rescaled_final/1476_fw.mp4	0.0	262.4284920692444	
38	240.423663854599	movie	1		246	36.0	2.5	/experiments/AOT/AOT_stimuli/rescaled_final/1476_fw.mp4	0.0	262.43661999702454	2.5079550743103027
38	242.01502084732056	pulse	1	t		36.0	2.5	/experiments/AOT/AOT_stimuli/rescaled_final/1476_fw.mp4	0.0	264.0279769897461	
38	242.9316189289093	fix_post	2		12	36.0	2.5	/experiments/AOT/AOT_stimuli/rescaled_final/1476_fw.mp4	0.0	264.94457507133484	0.10036897659301758
39	243.03198790550232	fix_pre	0		120	37.0	2.5	/experiments/AOT/AOT_stimuli/rescaled_final/2050_fw.mp4	0.0	265.04494404792786	0.9999890327453613
39	243.6155059337616	pulse	0	t		37.0	2.5	/experiments/AOT/AOT_stimuli/rescaled_final/2050_fw.mp4	0.0	265.62846207618713	
39	244.03197693824768	movie	1		245	37.0	2.5	/experiments/AOT/AOT_stimuli/rescaled_final/2050_fw.mp4	0.0	266.0449330806732	2.500113010406494
39	245.2155740261078	pulse	1	t		37.0	2.5	/experiments/AOT/AOT_stimuli/rescaled_final/2050_fw.mp4	0.0	267.2285301685333	
39	246.53208994865417	fix_post	2		12	37.0	2.5	/experiments/AOT/AOT_stimuli/rescaled_final/2050_fw.mp4	0.0	268.5450460910797	0.09998488426208496
40	246.63207483291626	fix_pre	0		120	38.0	2.5	/experiments/AOT/AOT_stimuli/rescaled_final/2002_fw.mp4	0.0	268.6450309753418	0.9999940395355225
40	246.81548380851746	pulse	0	t		38.0	2.5	/experiments/AOT/AOT_stimuli/rescaled_final/2002_fw.mp4	0.0	268.828439950943	
40	247.63206887245178	movie	1		245	38.0	2.5	/experiments/AOT/AOT_stimuli/rescaled_final/2002_fw.mp4	0.0	269.6450250148773	2.499969005584717
40	248.41548681259155	pulse	1	t		38.0	2.5	/experiments/AOT/AOT_stimuli/rescaled_final/2002_fw.mp4	0.0	270.4284429550171	
40	250.0139548778534	pulse	1	t		38.0	2.5	/experiments/AOT/AOT_stimuli/rescaled_final/2002_fw.mp4	0.0	272.02691102027893	
40	250.1320378780365	fix_post	2		12	38.0	2.5	/experiments/AOT/AOT_stimuli/rescaled_final/2002_fw.mp4	0.0	272.14499402046204	0.0999150276184082
41	250.2319529056549	fix_pre	0		120	39.0	2.5	/experiments/AOT/AOT_stimuli/rescaled_final/1658_fw.mp4	0.0	272.24490904808044	1.0000379085540771
41	251.23199081420898	movie	1		244	39.0	2.5	/experiments/AOT/AOT_stimuli/rescaled_final/1658_fw.mp4	0.0	273.2449469566345	2.4999451637268066
41	251.615473985672	pulse	1	t		39.0	2.5	/experiments/AOT/AOT_stimuli/rescaled_final/1658_fw.mp4	0.0	273.62843012809753	
41	253.21550679206848	pulse	1	t		39.0	2.5	/experiments/AOT/AOT_stimuli/rescaled_final/1658_fw.mp4	0.0	275.228462934494	
41	253.7319359779358	fix_post	2		12	39.0	2.5	/experiments/AOT/AOT_stimuli/rescaled_final/1658_fw.mp4	0.0	275.7448921203613	0.10006594657897949
42	253.83200192451477	fix_pre	0		119	40.0	2.5	blank	1.0	275.8449580669403	0.991595983505249
42	254.81551384925842	pulse	0	t		40.0	2.5	blank	1.0	276.82846999168396	
42	254.82359790802002	movie	1		301	40.0	2.5	blank	1.0	276.83655405044556	2.5083301067352295
42	256.41552996635437	pulse	1	t		40.0	2.5	blank	1.0	278.4284861087799	
42	257.33192801475525	fix_post	2		12	40.0	2.5	blank	1.0	279.3448841571808	0.1001138687133789
43	257.4320418834686	fix_pre	0		120	41.0	2.5	/experiments/AOT/AOT_stimuli/rescaled_final/1135_rv.mp4	0.0	279.44499802589417	0.9999561309814453
43	258.0154869556427	pulse	0	t		41.0	2.5	/experiments/AOT/AOT_stimuli/rescaled_final/1135_rv.mp4	0.0	280.02844309806824	
43	258.4319980144501	movie	1		245	41.0	2.5	/experiments/AOT/AOT_stimuli/rescaled_final/1135_rv.mp4	0.0	280.4449541568756	2.499907970428467
43	259.61554288864136	pulse	1	t		41.0	2.5	/experiments/AOT/AOT_stimuli/rescaled_final/1135_rv.mp4	0.0	281.6284990310669	
43	260.93190598487854	fix_post	2		12	41.0	2.5	/experiments/AOT/AOT_stimuli/rescaled_final/1135_rv.mp4	0.0	282.9448621273041	0.10003399848937988
44	261.0319399833679	fix_pre	0		120	42.0	2.5	/experiments/AOT/AOT_stimuli/rescaled_final/1063_fw.mp4	0.0	283.04489612579346	1.000011920928955
44	261.21539998054504	pulse	0	t		42.0	2.5	/experiments/AOT/AOT_stimuli/rescaled_final/1063_fw.mp4	0.0	283.2283561229706	
44	262.0319519042969	movie	1		247	42.0	2.5	/experiments/AOT/AOT_stimuli/rescaled_final/1063_fw.mp4	0.0	284.0449080467224	2.4996368885040283
44	262.8154079914093	pulse	1	t		42.0	2.5	/experiments/AOT/AOT_stimuli/rescaled_final/1063_fw.mp4	0.0	284.82836413383484	
44	264.41342186927795	pulse	1	t		42.0	2.5	/experiments/AOT/AOT_stimuli/rescaled_final/1063_fw.mp4	0.0	286.4263780117035	
44	264.5315887928009	fix_post	2		12	42.0	2.5	/experiments/AOT/AOT_stimuli/rescaled_final/1063_fw.mp4	0.0	286.54454493522644	0.09998106956481934
45	264.6315698623657	fix_pre	0		120	43.0	2.5	/experiments/AOT/AOT_stimuli/rescaled_final/1023_fw.mp4	0.0	286.64452600479126	1.0006141662597656
45	265.6321840286255	movie	1		243	43.0	2.5	/experiments/AOT/AOT_stimuli/rescaled_final/1023_fw.mp4	0.0	287.645140171051	2.499734878540039
45	266.0151529312134	pulse	1	t		43.0	2.5	/experiments/AOT/AOT_stimuli/rescaled_final/1023_fw.mp4	0.0	288.0281090736389	
45	267.6154239177704	pulse	1	t		43.0	2.5	/experiments/AOT/AOT_stimuli/rescaled_final/1023_fw.mp4	0.0	289.6283800601959	
45	268.1319189071655	fix_post	2		12	43.0	2.5	/experiments/AOT/AOT_stimuli/rescaled_final/1023_fw.mp4	0.0	290.14487504959106	0.100006103515625
46	268.23192501068115	fix_pre	0		119	44.0	2.5	/experiments/AOT/AOT_stimuli/rescaled_final/1320_rv.mp4	0.0	290.2448811531067	0.9916949272155762
46	269.2154059410095	pulse	0	t		44.0	2.5	/experiments/AOT/AOT_stimuli/rescaled_final/1320_rv.mp4	0.0	291.22836208343506	
46	269.22361993789673	movie	1		245	44.0	2.5	/experiments/AOT/AOT_stimuli/rescaled_final/1320_rv.mp4	0.0	291.23657608032227	2.5079100131988525
46	270.81542682647705	pulse	1	t		44.0	2.5	/experiments/AOT/AOT_stimuli/rescaled_final/1320_rv.mp4	0.0	292.8283829689026	
46	271.7315299510956	fix_post	2		12	44.0	2.5	/experiments/AOT/AOT_stimuli/rescaled_final/1320_rv.mp4	0.0	293.7444860935211	0.1003260612487793
47	271.83185601234436	fix_pre	0		120	45.0	2.5	/experiments/AOT/AOT_stimuli/rescaled_final/1763_fw.mp4	0.0	293.8448121547699	1.0000309944152832
47	272.41539001464844	pulse	0	t		45.0	2.5	/experiments/AOT/AOT_stimuli/rescaled_final/1763_fw.mp4	0.0	294.428346157074	
47	272.83188700675964	movie	1		243	45.0	2.5	/experiments/AOT/AOT_stimuli/rescaled_final/1763_fw.mp4	0.0	294.8448431491852	2.4999217987060547
47	274.01544284820557	pulse	1	t		45.0	2.5	/experiments/AOT/AOT_stimuli/rescaled_final/1763_fw.mp4	0.0	296.0283989906311	
47	275.3318088054657	fix_post	2		12	45.0	2.5	/experiments/AOT/AOT_stimuli/rescaled_final/1763_fw.mp4	0.0	297.34476494789124	0.10004520416259766
48	275.4318540096283	fix_pre	0		120	46.0	2.5	/experiments/AOT/AOT_stimuli/rescaled_final/0288_rv.mp4	0.0	297.44481015205383	0.9999608993530273
48	275.6154398918152	pulse	0	t		46.0	2.5	/experiments/AOT/AOT_stimuli/rescaled_final/0288_rv.mp4	0.0	297.6283960342407	
48	276.4318149089813	movie	1		244	46.0	2.5	/experiments/AOT/AOT_stimuli/rescaled_final/0288_rv.mp4	0.0	298.44477105140686	2.5002260208129883
48	277.21526288986206	pulse	1	t		46.0	2.5	/experiments/AOT/AOT_stimuli/rescaled_final/0288_rv.mp4	0.0	299.2282190322876	
48	278.8139839172363	pulse	1	t		46.0	2.5	/experiments/AOT/AOT_stimuli/rescaled_final/0288_rv.mp4	0.0	300.82694005966187	
48	278.9320409297943	fix_post	2		12	46.0	2.5	/experiments/AOT/AOT_stimuli/rescaled_final/0288_rv.mp4	0.0	300.94499707221985	0.09932994842529297
49	279.0313708782196	fix_pre	0		120	47.0	2.5	/experiments/AOT/AOT_stimuli/rescaled_final/0677_rv.mp4	0.0	301.04432702064514	1.000452995300293
49	280.0318238735199	movie	1		243	47.0	2.5	/experiments/AOT/AOT_stimuli/rescaled_final/0677_rv.mp4	0.0	302.04478001594543	2.5000200271606445
49	280.4154119491577	pulse	1	t		47.0	2.5	/experiments/AOT/AOT_stimuli/rescaled_final/0677_rv.mp4	0.0	302.42836809158325	
49	282.0152909755707	pulse	1	t		47.0	2.5	/experiments/AOT/AOT_stimuli/rescaled_final/0677_rv.mp4	0.0	304.0282471179962	
49	282.53184390068054	fix_post	2		12	47.0	2.5	/experiments/AOT/AOT_stimuli/rescaled_final/0677_rv.mp4	0.0	304.5448000431061	0.10002994537353516
50	282.6318738460541	fix_pre	0		119	48.0	2.5	/experiments/AOT/AOT_stimuli/rescaled_final/1797_fw.mp4	0.0	304.6448299884796	0.9916930198669434
50	283.61537194252014	pulse	0	t		48.0	2.5	/experiments/AOT/AOT_stimuli/rescaled_final/1797_fw.mp4	0.0	305.6283280849457	
50	283.623566865921	movie	1		246	48.0	2.5	/experiments/AOT/AOT_stimuli/rescaled_final/1797_fw.mp4	0.0	305.63652300834656	2.50829815864563
50	285.21528792381287	pulse	1	t		48.0	2.5	/experiments/AOT/AOT_stimuli/rescaled_final/1797_fw.mp4	0.0	307.2282440662384	
50	286.13186502456665	fix_post	2		12	48.0	2.5	/experiments/AOT/AOT_stimuli/rescaled_final/1797_fw.mp4	0.0	308.1448211669922	0.10002994537353516
51	286.2318949699402	fix_pre	0		120	49.0	2.5	blank	1.0	308.2448511123657	1.0000109672546387
51	286.8153238296509	pulse	0	t		49.0	2.5	blank	1.0	308.8282799720764	
51	287.2319059371948	movie	1		300	49.0	2.5	blank	1.0	309.24486207962036	2.499861001968384
51	288.41531682014465	pulse	1	t		49.0	2.5	blank	1.0	310.4282729625702	
51	289.7317669391632	fix_post	2		12	49.0	2.5	blank	1.0	311.74472308158875	0.10009288787841797
52	289.8318598270416	fix_pre	0		120	50.0	2.5	/experiments/AOT/AOT_stimuli/rescaled_final/1145_rv.mp4	0.0	311.84481596946716	0.9998891353607178
52	290.01529002189636	pulse	0	t		50.0	2.5	/experiments/AOT/AOT_stimuli/rescaled_final/1145_rv.mp4	0.0	312.0282461643219	
52	290.83174896240234	movie	1		245	50.0	2.5	/experiments/AOT/AOT_stimuli/rescaled_final/1145_rv.mp4	0.0	312.8447051048279	2.499640941619873
52	291.6152768135071	pulse	1	t		50.0	2.5	/experiments/AOT/AOT_stimuli/rescaled_final/1145_rv.mp4	0.0	313.6282329559326	
52	293.2148268222809	pulse	1	t		50.0	2.5	/experiments/AOT/AOT_stimuli/rescaled_final/1145_rv.mp4	0.0	315.2277829647064	
52	293.3313899040222	fix_post	2		12	50.0	2.5	/experiments/AOT/AOT_stimuli/rescaled_final/1145_rv.mp4	0.0	315.34434604644775	0.09994292259216309
53	293.4313328266144	fix_pre	0		120	51.0	2.5	/experiments/AOT/AOT_stimuli/rescaled_final/1320_fw.mp4	0.0	315.4442889690399	1.0004770755767822
53	294.43180990219116	movie	1		244	51.0	2.5	/experiments/AOT/AOT_stimuli/rescaled_final/1320_fw.mp4	0.0	316.4447660446167	2.50007700920105
53	294.81656289100647	pulse	1	t		51.0	2.5	/experiments/AOT/AOT_stimuli/rescaled_final/1320_fw.mp4	0.0	316.829519033432	
53	296.41525983810425	pulse	1	t		51.0	2.5	/experiments/AOT/AOT_stimuli/rescaled_final/1320_fw.mp4	0.0	318.4282159805298	
53	296.9318869113922	fix_post	2		12	51.0	2.5	/experiments/AOT/AOT_stimuli/rescaled_final/1320_fw.mp4	0.0	318.94484305381775	0.09982490539550781
54	297.0317118167877	fix_pre	0		119	52.0	2.5	/experiments/AOT/AOT_stimuli/rescaled_final/1628_fw.mp4	0.0	319.04466795921326	0.9917130470275879
54	298.0152540206909	pulse	0	t		52.0	2.5	/experiments/AOT/AOT_stimuli/rescaled_final/1628_fw.mp4	0.0	320.02821016311646	
54	298.0234248638153	movie	1		244	52.0	2.5	/experiments/AOT/AOT_stimuli/rescaled_final/1628_fw.mp4	0.0	320.03638100624084	2.5082409381866455
54	299.6148769855499	pulse	1	t		52.0	2.5	/experiments/AOT/AOT_stimuli/rescaled_final/1628_fw.mp4	0.0	321.62783312797546	
54	300.53166580200195	fix_post	2		12	52.0	2.5	/experiments/AOT/AOT_stimuli/rescaled_final/1628_fw.mp4	0.0	322.5446219444275	0.10008502006530762
55	300.63175082206726	fix_pre	0		120	53.0	2.5	/experiments/AOT/AOT_stimuli/rescaled_final/1809_fw.mp4	0.0	322.6447069644928	0.9999611377716064
55	301.21526193618774	pulse	0	t		53.0	2.5	/experiments/AOT/AOT_stimuli/rescaled_final/1809_fw.mp4	0.0	323.2282180786133	
55	301.63171195983887	movie	1		243	53.0	2.5	/experiments/AOT/AOT_stimuli/rescaled_final/1809_fw.mp4	0.0	323.6446681022644	2.5001368522644043
55	302.8153657913208	pulse	1	t		53.0	2.5	/experiments/AOT/AOT_stimuli/rescaled_final/1809_fw.mp4	0.0	324.82832193374634	
55	304.13184881210327	fix_post	2		12	53.0	2.5	/experiments/AOT/AOT_stimuli/rescaled_final/1809_fw.mp4	0.0	326.1448049545288	0.09988212585449219
56	304.23173093795776	fix_pre	0		120	54.0	2.5	/experiments/AOT/AOT_stimuli/rescaled_final/1947_fw.mp4	0.0	326.2446870803833	0.9999759197235107
56	304.4154369831085	pulse	0	t		54.0	2.5	/experiments/AOT/AOT_stimuli/rescaled_final/1947_fw.mp4	0.0	326.42839312553406	
56	305.2317068576813	movie	1		245	54.0	2.5	/experiments/AOT/AOT_stimuli/rescaled_final/1947_fw.mp4	0.0	327.2446630001068	2.4999711513519287
56	306.015154838562	pulse	1	t		54.0	2.5	/experiments/AOT/AOT_stimuli/rescaled_final/1947_fw.mp4	0.0	328.02811098098755	
56	307.6139039993286	pulse	1	t		54.0	2.5	/experiments/AOT/AOT_stimuli/rescaled_final/1947_fw.mp4	0.0	329.62686014175415	
56	307.7316780090332	fix_post	2		12	54.0	2.5	/experiments/AOT/AOT_stimuli/rescaled_final/1947_fw.mp4	0.0	329.74463415145874	0.10002589225769043
57	307.8317039012909	fix_pre	0		120	55.0	2.5	blank	1.0	329.84466004371643	1.0000360012054443
57	308.83173990249634	movie	1		300	55.0	2.5	blank	1.0	330.8446960449219	2.4999380111694336
57	309.215206861496	pulse	1	t		55.0	2.5	blank	1.0	331.2281630039215	
57	310.81513690948486	pulse	1	t		55.0	2.5	blank	1.0	332.8280930519104	
57	311.33167791366577	fix_post	2		12	55.0	2.5	blank	1.0	333.3446340560913	0.1000819206237793
58	311.43175983428955	fix_pre	0		119	56.0	2.5	/experiments/AOT/AOT_stimuli/rescaled_final/0967_fw.mp4	0.0	333.4447159767151	0.9916081428527832
58	312.4152088165283	pulse	0	t		56.0	2.5	/experiments/AOT/AOT_stimuli/rescaled_final/0967_fw.mp4	0.0	334.42816495895386	
58	312.42336797714233	movie	1		247	56.0	2.5	/experiments/AOT/AOT_stimuli/rescaled_final/0967_fw.mp4	0.0	334.43632411956787	2.5083799362182617
58	314.0146119594574	pulse	1	t		56.0	2.5	/experiments/AOT/AOT_stimuli/rescaled_final/0967_fw.mp4	0.0	336.02756810188293	
58	314.9317479133606	fix_post	2		12	56.0	2.5	/experiments/AOT/AOT_stimuli/rescaled_final/0967_fw.mp4	0.0	336.94470405578613	0.09992098808288574
59	315.0316689014435	fix_pre	0		120	57.0	2.5	/experiments/AOT/AOT_stimuli/rescaled_final/1703_fw.mp4	0.0	337.044625043869	1.0000340938568115
59	315.6152238845825	pulse	0	t		57.0	2.5	/experiments/AOT/AOT_stimuli/rescaled_final/1703_fw.mp4	0.0	337.62818002700806	
59	316.0317029953003	movie	1		243	57.0	2.5	/experiments/AOT/AOT_stimuli/rescaled_final/1703_fw.mp4	0.0	338.04465913772583	2.5000429153442383
59	317.21524000167847	pulse	1	t		57.0	2.5	/experiments/AOT/AOT_stimuli/rescaled_final/1703_fw.mp4	0.0	339.228196144104	
59	318.53174591064453	fix_post	2		12	57.0	2.5	/experiments/AOT/AOT_stimuli/rescaled_final/1703_fw.mp4	0.0	340.54470205307007	0.09997797012329102
60	318.6317238807678	fix_pre	0		120	58.0	2.5	/experiments/AOT/AOT_stimuli/rescaled_final/1497_rv.mp4	0.0	340.64468002319336	1.0000319480895996
60	318.8151979446411	pulse	0	t		58.0	2.5	/experiments/AOT/AOT_stimuli/rescaled_final/1497_rv.mp4	0.0	340.82815408706665	
60	319.6317558288574	movie	1		244	58.0	2.5	/experiments/AOT/AOT_stimuli/rescaled_final/1497_rv.mp4	0.0	341.64471197128296	2.4997830390930176
60	320.4153368473053	pulse	1	t		58.0	2.5	/experiments/AOT/AOT_stimuli/rescaled_final/1497_rv.mp4	0.0	342.42829298973083	
60	322.01340985298157	pulse	1	t		58.0	2.5	/experiments/AOT/AOT_stimuli/rescaled_final/1497_rv.mp4	0.0	344.0263659954071	
60	322.13153886795044	fix_post	2		12	58.0	2.5	/experiments/AOT/AOT_stimuli/rescaled_final/1497_rv.mp4	0.0	344.144495010376	0.10001397132873535
61	322.2315528392792	fix_pre	0		120	59.0	2.5	/experiments/AOT/AOT_stimuli/rescaled_final/0075_rv.mp4	0.0	344.2445089817047	1.0001461505889893
61	323.23169898986816	movie	1		244	59.0	2.5	/experiments/AOT/AOT_stimuli/rescaled_final/0075_rv.mp4	0.0	345.2446551322937	2.499508857727051
61	323.6146879196167	pulse	1	t		59.0	2.5	/experiments/AOT/AOT_stimuli/rescaled_final/0075_rv.mp4	0.0	345.62764406204224	
61	325.21519780158997	pulse	1	t		59.0	2.5	/experiments/AOT/AOT_stimuli/rescaled_final/0075_rv.mp4	0.0	347.2281539440155	
61	325.7312078475952	fix_post	2		12	59.0	2.5	/experiments/AOT/AOT_stimuli/rescaled_final/0075_rv.mp4	0.0	347.74416399002075	0.10039210319519043
62	325.8315999507904	fix_pre	0		119	60.0	2.5	/experiments/AOT/AOT_stimuli/rescaled_final/1725_rv.mp4	0.0	347.84455609321594	0.9917569160461426
62	326.8151059150696	pulse	0	t		60.0	2.5	/experiments/AOT/AOT_stimuli/rescaled_final/1725_rv.mp4	0.0	348.8280620574951	
62	326.82335686683655	movie	1		246	60.0	2.5	/experiments/AOT/AOT_stimuli/rescaled_final/1725_rv.mp4	0.0	348.8363130092621	2.5083041191101074
62	328.4161639213562	pulse	1	t		60.0	2.5	/experiments/AOT/AOT_stimuli/rescaled_final/1725_rv.mp4	0.0	350.42912006378174	
62	329.33166098594666	fix_post	2		12	60.0	2.5	/experiments/AOT/AOT_stimuli/rescaled_final/1725_rv.mp4	0.0	351.3446171283722	0.09989500045776367
63	329.4315559864044	fix_pre	0		120	61.0	2.5	/experiments/AOT/AOT_stimuli/rescaled_final/1663_fw.mp4	0.0	351.44451212882996	0.9996109008789062
63	330.015074968338	pulse	0	t		61.0	2.5	/experiments/AOT/AOT_stimuli/rescaled_final/1663_fw.mp4	0.0	352.02803111076355	
63	330.4311668872833	movie	1		247	61.0	2.5	/experiments/AOT/AOT_stimuli/rescaled_final/1663_fw.mp4	0.0	352.44412302970886	2.500401020050049
63	331.61511993408203	pulse	1	t		61.0	2.5	/experiments/AOT/AOT_stimuli/rescaled_final/1663_fw.mp4	0.0	353.62807607650757	
63	332.9315679073334	fix_post	2		12	61.0	2.5	/experiments/AOT/AOT_stimuli/rescaled_final/1663_fw.mp4	0.0	354.9445240497589	0.10003304481506348
64	333.03160095214844	fix_pre	0		120	62.0	2.5	blank	1.0	355.044557094574	0.9999868869781494
64	333.21506786346436	pulse	0	t		62.0	2.5	blank	1.0	355.2280240058899	
64	334.0315878391266	movie	1		300	62.0	2.5	blank	1.0	356.0445439815521	2.4999170303344727
64	334.81504583358765	pulse	1	t		62.0	2.5	blank	1.0	356.8280019760132	
64	336.4150710105896	pulse	1	t		62.0	2.5	blank	1.0	358.42802715301514	
64	336.53150486946106	fix_post	2		12	62.0	2.5	blank	1.0	358.5444610118866	0.0996401309967041
65	336.63114500045776	fix_pre	0		120	63.0	2.5	/experiments/AOT/AOT_stimuli/rescaled_final/0566_rv.mp4	0.0	358.6441011428833	1.0003888607025146
65	337.6315338611603	movie	1		243	63.0	2.5	/experiments/AOT/AOT_stimuli/rescaled_final/0566_rv.mp4	0.0	359.6444900035858	2.499985933303833
65	338.0153398513794	pulse	1	t		63.0	2.5	/experiments/AOT/AOT_stimuli/rescaled_final/0566_rv.mp4	0.0	360.02829599380493	
65	339.6150279045105	pulse	1	t		63.0	2.5	/experiments/AOT/AOT_stimuli/rescaled_final/0566_rv.mp4	0.0	361.62798404693604	
65	340.1315197944641	fix_post	2		12	63.0	2.5	/experiments/AOT/AOT_stimuli/rescaled_final/0566_rv.mp4	0.0	362.14447593688965	0.09997820854187012
66	340.231498003006	fix_pre	0		119	64.0	2.5	/experiments/AOT/AOT_stimuli/rescaled_final/1293_fw.mp4	0.0	362.2444541454315	0.9916708469390869
66	341.21514797210693	pulse	0	t		64.0	2.5	/experiments/AOT/AOT_stimuli/rescaled_final/1293_fw.mp4	0.0	363.22810411453247	
66	341.22316884994507	movie	1		244	64.0	2.5	/experiments/AOT/AOT_stimuli/rescaled_final/1293_fw.mp4	0.0	363.2361249923706	2.5083560943603516
66	342.8149309158325	pulse	1	t		64.0	2.5	/experiments/AOT/AOT_stimuli/rescaled_final/1293_fw.mp4	0.0	364.82788705825806	
66	343.7315249443054	fix_post	2		12	64.0	2.5	/experiments/AOT/AOT_stimuli/rescaled_final/1293_fw.mp4	0.0	365.74448108673096	0.09997797012329102
67	343.8315029144287	fix_pre	0		120	65.0	2.5	/experiments/AOT/AOT_stimuli/rescaled_final/1856_rv.mp4	0.0	365.84445905685425	1.0000159740447998
67	344.4150688648224	pulse	0	t		65.0	2.5	/experiments/AOT/AOT_stimuli/rescaled_final/1856_rv.mp4	0.0	366.4280250072479	
67	344.8315188884735	movie	1		242	65.0	2.5	/experiments/AOT/AOT_stimuli/rescaled_final/1856_rv.mp4	0.0	366.84447503089905	2.499964952468872
67	346.0152189731598	pulse	1	t		65.0	2.5	/experiments/AOT/AOT_stimuli/rescaled_final/1856_rv.mp4	0.0	368.0281751155853	
67	347.3314838409424	fix_post	2		12	65.0	2.5	/experiments/AOT/AOT_stimuli/rescaled_final/1856_rv.mp4	0.0	369.3444399833679	0.10004496574401855
68	347.4315288066864	fix_pre	0		120	66.0	2.5	/experiments/AOT/AOT_stimuli/rescaled_final/1834_rv.mp4	0.0	369.44448494911194	1.0000190734863281
68	347.6150999069214	pulse	0	t		66.0	2.5	/experiments/AOT/AOT_stimuli/rescaled_final/1834_rv.mp4	0.0	369.6280560493469	
68	348.43154788017273	movie	1		245	66.0	2.5	/experiments/AOT/AOT_stimuli/rescaled_final/1834_rv.mp4	0.0	370.44450402259827	2.499993085861206
68	349.2149329185486	pulse	1	t		66.0	2.5	/experiments/AOT/AOT_stimuli/rescaled_final/1834_rv.mp4	0.0	371.2278890609741	
68	350.81506085395813	pulse	1	t		66.0	2.5	/experiments/AOT/AOT_stimuli/rescaled_final/1834_rv.mp4	0.0	372.82801699638367	
68	350.93154096603394	fix_post	2		12	66.0	2.5	/experiments/AOT/AOT_stimuli/rescaled_final/1834_rv.mp4	0.0	372.9444971084595	0.10002493858337402
69	351.0315659046173	fix_pre	0		120	67.0	2.5	/experiments/AOT/AOT_stimuli/rescaled_final/0152_rv.mp4	0.0	373.04452204704285	0.9999721050262451
69	352.03153800964355	movie	1		245	67.0	2.5	/experiments/AOT/AOT_stimuli/rescaled_final/0152_rv.mp4	0.0	374.0444941520691	2.4999489784240723
69	352.4143509864807	pulse	1	t		67.0	2.5	/experiments/AOT/AOT_stimuli/rescaled_final/0152_rv.mp4	0.0	374.42730712890625	
69	354.0150489807129	pulse	1	t		67.0	2.5	/experiments/AOT/AOT_stimuli/rescaled_final/0152_rv.mp4	0.0	376.0280051231384	
69	354.5314869880676	fix_post	2		12	67.0	2.5	/experiments/AOT/AOT_stimuli/rescaled_final/0152_rv.mp4	0.0	376.54444313049316	0.10000491142272949
70	354.63149189949036	fix_pre	0		119	68.0	2.5	/experiments/AOT/AOT_stimuli/rescaled_final/1372_rv.mp4	0.0	376.6444480419159	0.9916970729827881
70	355.6149938106537	pulse	0	t		68.0	2.5	/experiments/AOT/AOT_stimuli/rescaled_final/1372_rv.mp4	0.0	377.6279499530792	
70	355.62318897247314	movie	1		245	68.0	2.5	/experiments/AOT/AOT_stimuli/rescaled_final/1372_rv.mp4	0.0	377.6361451148987	2.5081799030303955
70	357.21477699279785	pulse	1	t		68.0	2.5	/experiments/AOT/AOT_stimuli/rescaled_final/1372_rv.mp4	0.0	379.2277331352234	
70	358.13136887550354	fix_post	2		12	68.0	2.5	/experiments/AOT/AOT_stimuli/rescaled_final/1372_rv.mp4	0.0	380.1443250179291	0.10005807876586914
71	358.2314269542694	fix_pre	0		120	69.0	2.5	blank	1.0	380.24438309669495	0.9999649524688721
71	358.8149678707123	pulse	0	t		69.0	2.5	blank	1.0	380.8279240131378	
71	359.2313919067383	movie	1		300	69.0	2.5	blank	1.0	381.2443480491638	2.5000479221343994
71	360.414913892746	pulse	1	t		69.0	2.5	blank	1.0	382.4278700351715	
71	361.7314398288727	fix_post	2		12	69.0	2.5	blank	1.0	383.7443959712982	0.09994912147521973
72	361.8313889503479	fix_pre	0		120	70.0	2.5	/experiments/AOT/AOT_stimuli/rescaled_final/0157_fw.mp4	0.0	383.84434509277344	1.0000910758972168
72	362.01494884490967	pulse	0	t		70.0	2.5	/experiments/AOT/AOT_stimuli/rescaled_final/0157_fw.mp4	0.0	384.0279049873352	
72	362.8314800262451	movie	1		243	70.0	2.5	/experiments/AOT/AOT_stimuli/rescaled_final/0157_fw.mp4	0.0	384.84443616867065	2.4999289512634277
72	363.6147940158844	pulse	1	t		70.0	2.5	/experiments/AOT/AOT_stimuli/rescaled_final/0157_fw.mp4	0.0	385.62775015830994	
72	365.22333788871765	pulse	1	t		70.0	2.5	/experiments/AOT/AOT_stimuli/rescaled_final/0157_fw.mp4	0.0	387.2362940311432	
72	365.33140897750854	fix_post	2		12	70.0	2.5	/experiments/AOT/AOT_stimuli/rescaled_final/0157_fw.mp4	0.0	387.3443651199341	0.09996700286865234
73	365.4313759803772	fix_pre	0		120	71.0	2.5	/experiments/AOT/AOT_stimuli/rescaled_final/0129_fw.mp4	0.0	387.44433212280273	1.000087022781372
73	366.43146300315857	movie	1		243	71.0	2.5	/experiments/AOT/AOT_stimuli/rescaled_final/0129_fw.mp4	0.0	388.4444191455841	2.4999308586120605
73	366.81523394584656	pulse	1	t		71.0	2.5	/experiments/AOT/AOT_stimuli/rescaled_final/0129_fw.mp4	0.0	388.8281900882721	
73	368.4148588180542	pulse	1	t		71.0	2.5	/experiments/AOT/AOT_stimuli/rescaled_final/0129_fw.mp4	0.0	390.42781496047974	
73	368.93139386177063	fix_post	2		12	71.0	2.5	/experiments/AOT/AOT_stimuli/rescaled_final/0129_fw.mp4	0.0	390.94435000419617	0.09995198249816895
74	369.0313458442688	fix_pre	0		119	72.0	2.5	/experiments/AOT/AOT_stimuli/rescaled_final/1302_rv.mp4	0.0	391.04430198669434	0.9917330741882324
74	370.01492285728455	pulse	0	t		72.0	2.5	/experiments/AOT/AOT_stimuli/rescaled_final/1302_rv.mp4	0.0	392.0278789997101	
74	370.02307891845703	movie	1		244	72.0	2.5	/experiments/AOT/AOT_stimuli/rescaled_final/1302_rv.mp4	0.0	392.03603506088257	2.5084950923919678
74	371.61471796035767	pulse	1	t		72.0	2.5	/experiments/AOT/AOT_stimuli/rescaled_final/1302_rv.mp4	0.0	393.6276741027832	
74	372.531574010849	fix_post	2		12	72.0	2.5	/experiments/AOT/AOT_stimuli/rescaled_final/1302_rv.mp4	0.0	394.54453015327454	0.09985089302062988
75	372.63142490386963	fix_pre	0		120	73.0	2.5	/experiments/AOT/AOT_stimuli/rescaled_final/1369_fw.mp4	0.0	394.64438104629517	0.9999608993530273
75	373.21490597724915	pulse	0	t		73.0	2.5	/experiments/AOT/AOT_stimuli/rescaled_final/1369_fw.mp4	0.0	395.2278621196747	
75	373.63138580322266	movie	1		245	73.0	2.5	/experiments/AOT/AOT_stimuli/rescaled_final/1369_fw.mp4	0.0	395.6443419456482	2.5000100135803223
75	374.81488394737244	pulse	1	t		73.0	2.5	/experiments/AOT/AOT_stimuli/rescaled_final/1369_fw.mp4	0.0	396.827840089798	
75	376.131395816803	fix_post	2		12	73.0	2.5	/experiments/AOT/AOT_stimuli/rescaled_final/1369_fw.mp4	0.0	398.1443519592285	0.09999799728393555
76	376.2313938140869	fix_pre	0		120	74.0	2.5	/experiments/AOT/AOT_stimuli/rescaled_final/2153_rv.mp4	0.0	398.24434995651245	1.0001142024993896
76	376.4145259857178	pulse	0	t		74.0	2.5	/experiments/AOT/AOT_stimuli/rescaled_final/2153_rv.mp4	0.0	398.4274821281433	
76	377.2315080165863	movie	1		245	74.0	2.5	/experiments/AOT/AOT_stimuli/rescaled_final/2153_rv.mp4	0.0	399.24446415901184	2.499818801879883
76	378.0146849155426	pulse	1	t		74.0	2.5	/experiments/AOT/AOT_stimuli/rescaled_final/2153_rv.mp4	0.0	400.02764105796814	
76	379.61435198783875	pulse	1	t		74.0	2.5	/experiments/AOT/AOT_stimuli/rescaled_final/2153_rv.mp4	0.0	401.6273081302643	
76	379.7313268184662	fix_post	2		12	74.0	2.5	/experiments/AOT/AOT_stimuli/rescaled_final/2153_rv.mp4	0.0	401.7442829608917	0.09997415542602539
77	379.8313009738922	fix_pre	0		120	75.0	2.5	/experiments/AOT/AOT_stimuli/rescaled_final/0586_rv.mp4	0.0	401.84425711631775	1.0000648498535156
77	380.8313658237457	movie	1		244	75.0	2.5	/experiments/AOT/AOT_stimuli/rescaled_final/0586_rv.mp4	0.0	402.84432196617126	2.5000240802764893
77	381.21421790122986	pulse	1	t		75.0	2.5	/experiments/AOT/AOT_stimuli/rescaled_final/0586_rv.mp4	0.0	403.2271740436554	
77	382.8148548603058	pulse	1	t		75.0	2.5	/experiments/AOT/AOT_stimuli/rescaled_final/0586_rv.mp4	0.0	404.8278110027313	
77	383.3313899040222	fix_post	2		12	75.0	2.5	/experiments/AOT/AOT_stimuli/rescaled_final/0586_rv.mp4	0.0	405.34434604644775	0.10007905960083008
78	383.43146896362305	fix_pre	0		119	76.0	2.5	/experiments/AOT/AOT_stimuli/rescaled_final/1587_rv.mp4	0.0	405.4444251060486	0.9915518760681152
78	384.4146909713745	pulse	0	t		76.0	2.5	/experiments/AOT/AOT_stimuli/rescaled_final/1587_rv.mp4	0.0	406.42764711380005	
78	384.42302083969116	movie	1		245	76.0	2.5	/experiments/AOT/AOT_stimuli/rescaled_final/1587_rv.mp4	0.0	406.4359769821167	2.508347988128662
78	386.0142879486084	pulse	1	t		76.0	2.5	/experiments/AOT/AOT_stimuli/rescaled_final/1587_rv.mp4	0.0	408.02724409103394	
78	386.9313688278198	fix_post	2		12	76.0	2.5	/experiments/AOT/AOT_stimuli/rescaled_final/1587_rv.mp4	0.0	408.94432497024536	0.09992408752441406
79	387.03129291534424	fix_pre	0		120	77.0	2.5	blank	1.0	409.0442490577698	1.0000500679016113
79	387.6146728992462	pulse	0	t		77.0	2.5	blank	1.0	409.62762904167175	
79	388.03134298324585	movie	1		300	77.0	2.5	blank	1.0	410.0442991256714	2.4999449253082275
79	389.2148299217224	pulse	1	t		77.0	2.5	blank	1.0	411.22778606414795	
79	390.5312879085541	fix_post	2		12	77.0	2.5	blank	1.0	412.5442440509796	0.09992790222167969
80	390.63121581077576	fix_pre	0		120	78.0	2.5	/experiments/AOT/AOT_stimuli/rescaled_final/1520_rv.mp4	0.0	412.6441719532013	1.0000171661376953
80	390.814759016037	pulse	0	t		78.0	2.5	/experiments/AOT/AOT_stimuli/rescaled_final/1520_rv.mp4	0.0	412.8277151584625	
80	391.63123297691345	movie	1		247	78.0	2.5	/experiments/AOT/AOT_stimuli/rescaled_final/1520_rv.mp4	0.0	413.644189119339	2.499574899673462
80	392.41472601890564	pulse	1	t		78.0	2.5	/experiments/AOT/AOT_stimuli/rescaled_final/1520_rv.mp4	0.0	414.4276821613312	
80	394.014760017395	pulse	1	t		78.0	2.5	/experiments/AOT/AOT_stimuli/rescaled_final/1520_rv.mp4	0.0	416.02771615982056	
80	394.1308078765869	fix_post	2		12	78.0	2.5	/experiments/AOT/AOT_stimuli/rescaled_final/1520_rv.mp4	0.0	416.14376401901245	0.10045194625854492
81	394.23125982284546	fix_pre	0		120	79.0	2.5	/experiments/AOT/AOT_stimuli/rescaled_final/0288_fw.mp4	0.0	416.244215965271	0.9999799728393555
81	395.2312397956848	movie	1		246	79.0	2.5	/experiments/AOT/AOT_stimuli/rescaled_final/0288_fw.mp4	0.0	417.24419593811035	2.499610185623169
81	395.6142768859863	pulse	1	t		79.0	2.5	/experiments/AOT/AOT_stimuli/rescaled_final/0288_fw.mp4	0.0	417.62723302841187	
81	397.2147009372711	pulse	1	t		79.0	2.5	/experiments/AOT/AOT_stimuli/rescaled_final/0288_fw.mp4	0.0	419.22765707969666	
81	397.730849981308	fix_post	2		12	79.0	2.5	/experiments/AOT/AOT_stimuli/rescaled_final/0288_fw.mp4	0.0	419.7438061237335	0.10044598579406738
82	397.83129596710205	fix_pre	0		119	80.0	2.5	/experiments/AOT/AOT_stimuli/rescaled_final/0180_fw.mp4	0.0	419.8442521095276	0.9915368556976318
82	398.81470584869385	pulse	0	t		80.0	2.5	/experiments/AOT/AOT_stimuli/rescaled_final/0180_fw.mp4	0.0	420.8276619911194	
82	398.8228328227997	movie	1		247	80.0	2.5	/experiments/AOT/AOT_stimuli/rescaled_final/0180_fw.mp4	0.0	420.8357889652252	2.508005142211914
82	400.4141528606415	pulse	1	t		80.0	2.5	/experiments/AOT/AOT_stimuli/rescaled_final/0180_fw.mp4	0.0	422.427109003067	
82	401.3308379650116	fix_post	2		12	80.0	2.5	/experiments/AOT/AOT_stimuli/rescaled_final/0180_fw.mp4	0.0	423.34379410743713	0.10040593147277832
83	401.4312438964844	fix_pre	0		120	81.0	2.5	/experiments/AOT/AOT_stimuli/rescaled_final/1763_fw.mp4	0.0	423.4442000389099	0.9995219707489014
83	402.0146689414978	pulse	0	t		81.0	2.5	/experiments/AOT/AOT_stimuli/rescaled_final/1763_fw.mp4	0.0	424.02762508392334	
83	402.4307658672333	movie	1		243	81.0	2.5	/experiments/AOT/AOT_stimuli/rescaled_final/1763_fw.mp4	0.0	424.4437220096588	2.5004141330718994
83	403.6148638725281	pulse	1	t		81.0	2.5	/experiments/AOT/AOT_stimuli/rescaled_final/1763_fw.mp4	0.0	425.6278200149536	
83	404.9311800003052	fix_post	2		12	81.0	2.5	/experiments/AOT/AOT_stimuli/rescaled_final/1763_fw.mp4	0.0	426.9441361427307	0.09998297691345215
84	405.0311629772186	fix_pre	0		120	82.0	2.5	/experiments/AOT/AOT_stimuli/rescaled_final/1169_fw.mp4	0.0	427.04411911964417	0.9999809265136719
84	405.21467995643616	pulse	0	t		82.0	2.5	/experiments/AOT/AOT_stimuli/rescaled_final/1169_fw.mp4	0.0	427.2276360988617	
84	406.0311439037323	movie	1		244	82.0	2.5	/experiments/AOT/AOT_stimuli/rescaled_final/1169_fw.mp4	0.0	428.04410004615784	2.500075101852417
84	406.8145627975464	pulse	1	t		82.0	2.5	/experiments/AOT/AOT_stimuli/rescaled_final/1169_fw.mp4	0.0	428.8275189399719	
84	408.4151430130005	pulse	1	t		82.0	2.5	/experiments/AOT/AOT_stimuli/rescaled_final/1169_fw.mp4	0.0	430.428099155426	
84	408.5312190055847	fix_post	2		12	82.0	2.5	/experiments/AOT/AOT_stimuli/rescaled_final/1169_fw.mp4	0.0	430.54417514801025	0.09992599487304688
85	408.63114500045776	fix_pre	0		120	83.0	2.5	blank	1.0	430.6441011428833	1.0000379085540771
85	409.63118290901184	movie	1		300	83.0	2.5	blank	1.0	431.6441390514374	2.5000269412994385
85	410.0147268772125	pulse	1	t		83.0	2.5	blank	1.0	432.02768301963806	
85	411.6148009300232	pulse	1	t		83.0	2.5	blank	1.0	433.62775707244873	
85	412.1312098503113	fix_post	2		12	83.0	2.5	blank	1.0	434.1441659927368	0.09991908073425293
87	412.23112893104553	stim	0		1716					434.24408507347107	14.300049066543579
87	413.21464681625366	pulse	0	t						435.2276029586792	
87	414.81456780433655	pulse	0	t						436.8275239467621	
87	416.4145920276642	pulse	0	t						438.4275481700897	
87	418.0146379470825	pulse	0	t						440.02759408950806	
87	419.61460280418396	pulse	0	t						441.6275589466095	
87	421.2145709991455	pulse	0	t						443.22752714157104	
87	422.8145959377289	pulse	0	t						444.8275520801544	
87	424.4145858287811	pulse	0	t						446.42754197120667	
87	426.01458287239075	pulse	0	t						448.0275390148163	
