trial_nr	onset	event_type	phase	response	nr_frames	movie_index	movie_duration	movie_file	blank	onset_abs	duration
0	0.22482013702392578	stim	0		88					23.499247074127197	0.7334108352661133
0	0.9501969814300537	response	0	space						24.224623918533325	
1	0.9582309722900391	stim	0		4659					24.23265790939331	38.84360313415527
1	39.78683614730835	pulse	0	t						63.06126308441162	
1	39.80183410644531	stim	1		1715					63.076261043548584	14.297666072845459
1	41.38112115859985	pulse	1	t						64.65554809570312	
1	42.9813871383667	pulse	1	t						66.25581407546997	
1	44.581599950790405	pulse	1	t						67.85602688789368	
1	46.18185615539551	pulse	1	t						69.45628309249878	
1	47.78206205368042	pulse	1	t						71.05648899078369	
1	49.38227105140686	pulse	1	t						72.65669798851013	
1	50.982579946517944	pulse	1	t						74.25700688362122	
1	52.58282113075256	pulse	1	t						75.85724806785583	
2	54.09950017929077	fix_pre	0		11	0.0	2.5	/experiments/knapen_AOT/AOT_stimuli/rescaled_final/1668_fw.mp4	0.0	77.37392711639404	0.10845685005187988
2	54.18307304382324	pulse	0	t		0.0	2.5	/experiments/knapen_AOT/AOT_stimuli/rescaled_final/1668_fw.mp4	0.0	77.45749998092651	
2	54.20795702934265	movie	1		241	0.0	2.5	/experiments/knapen_AOT/AOT_stimuli/rescaled_final/1668_fw.mp4	0.0	77.48238396644592	2.4919440746307373
2	55.78395915031433	pulse	1	t		0.0	2.5	/experiments/knapen_AOT/AOT_stimuli/rescaled_final/1668_fw.mp4	0.0	79.0583860874176	
2	56.69990110397339	fix_post	2		12	0.0	2.5	/experiments/knapen_AOT/AOT_stimuli/rescaled_final/1668_fw.mp4	0.0	79.97432804107666	0.09999585151672363
3	56.79989695549011	fix_pre	0		120	1.0	2.5	/experiments/knapen_AOT/AOT_stimuli/rescaled_final/0446_fw.mp4	0.0	80.07432389259338	1.000129222869873
3	57.38356804847717	pulse	0	t		1.0	2.5	/experiments/knapen_AOT/AOT_stimuli/rescaled_final/0446_fw.mp4	0.0	80.65799498558044	
3	57.800026178359985	movie	1		244	1.0	2.5	/experiments/knapen_AOT/AOT_stimuli/rescaled_final/0446_fw.mp4	0.0	81.07445311546326	2.500394821166992
3	58.98385715484619	pulse	1	t		1.0	2.5	/experiments/knapen_AOT/AOT_stimuli/rescaled_final/0446_fw.mp4	0.0	82.25828409194946	
3	60.30042099952698	fix_post	2		12	1.0	2.5	/experiments/knapen_AOT/AOT_stimuli/rescaled_final/0446_fw.mp4	0.0	83.57484793663025	0.10000205039978027
4	60.40042304992676	fix_pre	0		120	2.0	2.5	/experiments/knapen_AOT/AOT_stimuli/rescaled_final/0851_rv.mp4	0.0	83.67484998703003	1.000209093093872
4	60.57647109031677	pulse	0	t		2.0	2.5	/experiments/knapen_AOT/AOT_stimuli/rescaled_final/0851_rv.mp4	0.0	83.85089802742004	
4	61.40063214302063	movie	1		243	2.0	2.5	/experiments/knapen_AOT/AOT_stimuli/rescaled_final/0851_rv.mp4	0.0	84.6750590801239	2.500337839126587
4	62.17688012123108	pulse	1	t		2.0	2.5	/experiments/knapen_AOT/AOT_stimuli/rescaled_final/0851_rv.mp4	0.0	85.45130705833435	
4	63.784242153167725	pulse	1	t		2.0	2.5	/experiments/knapen_AOT/AOT_stimuli/rescaled_final/0851_rv.mp4	0.0	87.058669090271	
4	63.90096998214722	fix_post	2		12	2.0	2.5	/experiments/knapen_AOT/AOT_stimuli/rescaled_final/0851_rv.mp4	0.0	87.17539691925049	0.10000014305114746
5	64.00097012519836	fix_pre	0		120	3.0	2.5	/experiments/knapen_AOT/AOT_stimuli/rescaled_final/1323_rv.mp4	0.0	87.27539706230164	1.0001599788665771
5	65.00113010406494	movie	1		242	3.0	2.5	/experiments/knapen_AOT/AOT_stimuli/rescaled_final/1323_rv.mp4	0.0	88.27555704116821	2.4920308589935303
5	65.38888311386108	pulse	1	t		3.0	2.5	/experiments/knapen_AOT/AOT_stimuli/rescaled_final/1323_rv.mp4	0.0	88.66331005096436	
5	66.97759199142456	pulse	1	t		3.0	2.5	/experiments/knapen_AOT/AOT_stimuli/rescaled_final/1323_rv.mp4	0.0	90.25201892852783	
5	67.49316096305847	fix_post	2		12	3.0	2.5	/experiments/knapen_AOT/AOT_stimuli/rescaled_final/1323_rv.mp4	0.0	90.76758790016174	0.09998416900634766
6	67.59314513206482	fix_pre	0		119	4.0	2.5	/experiments/knapen_AOT/AOT_stimuli/rescaled_final/1870_fw.mp4	0.0	90.86757206916809	0.9918689727783203
6	68.5768370628357	pulse	0	t		4.0	2.5	/experiments/knapen_AOT/AOT_stimuli/rescaled_final/1870_fw.mp4	0.0	91.85126399993896	
6	68.58501410484314	movie	1		245	4.0	2.5	/experiments/knapen_AOT/AOT_stimuli/rescaled_final/1870_fw.mp4	0.0	91.85944104194641	2.5086610317230225
6	70.17849516868591	pulse	1	t		4.0	2.5	/experiments/knapen_AOT/AOT_stimuli/rescaled_final/1870_fw.mp4	0.0	93.45292210578918	
6	71.09367513656616	fix_post	2		12	4.0	2.5	/experiments/knapen_AOT/AOT_stimuli/rescaled_final/1870_fw.mp4	0.0	94.36810207366943	0.10011792182922363
7	71.19379305839539	fix_pre	0		120	5.0	2.5	blank	1.0	94.46821999549866	1.0000638961791992
7	71.77743196487427	pulse	0	t		5.0	2.5	blank	1.0	95.05185890197754	
7	72.19385695457458	movie	1		300	5.0	2.5	blank	1.0	95.46828389167786	2.500401020050049
7	73.37761807441711	pulse	1	t		5.0	2.5	blank	1.0	96.65204501152039	
7	74.69425797462463	fix_post	2		12	5.0	2.5	blank	1.0	97.9686849117279	0.09995603561401367
8	74.79421401023865	fix_pre	0		120	6.0	2.5	/experiments/knapen_AOT/AOT_stimuli/rescaled_final/0193_rv.mp4	0.0	98.06864094734192	1.0002379417419434
8	74.9778790473938	pulse	0	t		6.0	2.5	/experiments/knapen_AOT/AOT_stimuli/rescaled_final/0193_rv.mp4	0.0	98.25230598449707	
8	75.79445195198059	movie	1		245	6.0	2.5	/experiments/knapen_AOT/AOT_stimuli/rescaled_final/0193_rv.mp4	0.0	99.06887888908386	2.500347137451172
8	76.5780701637268	pulse	1	t		6.0	2.5	/experiments/knapen_AOT/AOT_stimuli/rescaled_final/0193_rv.mp4	0.0	99.85249710083008	
8	78.17851209640503	pulse	1	t		6.0	2.5	/experiments/knapen_AOT/AOT_stimuli/rescaled_final/0193_rv.mp4	0.0	101.4529390335083	
8	78.29479908943176	fix_post	2		12	6.0	2.5	/experiments/knapen_AOT/AOT_stimuli/rescaled_final/0193_rv.mp4	0.0	101.56922602653503	0.09998893737792969
9	78.39478802680969	fix_pre	0		119	7.0	2.5	/experiments/knapen_AOT/AOT_stimuli/rescaled_final/2137_rv.mp4	0.0	101.66921496391296	0.99186110496521
9	79.3866491317749	movie	1		244	7.0	2.5	/experiments/knapen_AOT/AOT_stimuli/rescaled_final/2137_rv.mp4	0.0	102.66107606887817	2.500300884246826
9	79.77858901023865	pulse	1	t		7.0	2.5	/experiments/knapen_AOT/AOT_stimuli/rescaled_final/2137_rv.mp4	0.0	103.05301594734192	
9	81.37888097763062	pulse	1	t		7.0	2.5	/experiments/knapen_AOT/AOT_stimuli/rescaled_final/2137_rv.mp4	0.0	104.65330791473389	
9	81.88695001602173	fix_post	2		12	7.0	2.5	/experiments/knapen_AOT/AOT_stimuli/rescaled_final/2137_rv.mp4	0.0	105.161376953125	0.10003805160522461
10	81.98698806762695	fix_pre	0		120	8.0	2.5	/experiments/knapen_AOT/AOT_stimuli/rescaled_final/1037_rv.mp4	0.0	105.26141500473022	1.0001769065856934
10	82.97904109954834	pulse	0	t		8.0	2.5	/experiments/knapen_AOT/AOT_stimuli/rescaled_final/1037_rv.mp4	0.0	106.25346803665161	
10	82.98716497421265	movie	1		242	8.0	2.5	/experiments/knapen_AOT/AOT_stimuli/rescaled_final/1037_rv.mp4	0.0	106.26159191131592	2.5087339878082275
10	84.57988095283508	pulse	1	t		8.0	2.5	/experiments/knapen_AOT/AOT_stimuli/rescaled_final/1037_rv.mp4	0.0	107.85430788993835	
10	85.49589896202087	fix_post	2		12	8.0	2.5	/experiments/knapen_AOT/AOT_stimuli/rescaled_final/1037_rv.mp4	0.0	108.77032589912415	0.09998798370361328
11	85.59588694572449	fix_pre	0		120	9.0	2.5	/experiments/knapen_AOT/AOT_stimuli/rescaled_final/0904_rv.mp4	0.0	108.87031388282776	1.000124216079712
11	86.17960095405579	pulse	0	t		9.0	2.5	/experiments/knapen_AOT/AOT_stimuli/rescaled_final/0904_rv.mp4	0.0	109.45402789115906	
11	86.5960111618042	movie	1		245	9.0	2.5	/experiments/knapen_AOT/AOT_stimuli/rescaled_final/0904_rv.mp4	0.0	109.87043809890747	2.5003368854522705
11	87.77982997894287	pulse	1	t		9.0	2.5	/experiments/knapen_AOT/AOT_stimuli/rescaled_final/0904_rv.mp4	0.0	111.05425691604614	
11	89.09634804725647	fix_post	2		12	9.0	2.5	/experiments/knapen_AOT/AOT_stimuli/rescaled_final/0904_rv.mp4	0.0	112.37077498435974	0.10002994537353516
12	89.19637799263	fix_pre	0		120	10.0	2.5	/experiments/knapen_AOT/AOT_stimuli/rescaled_final/0093_fw.mp4	0.0	112.47080492973328	1.0001850128173828
12	89.380047082901	pulse	0	t		10.0	2.5	/experiments/knapen_AOT/AOT_stimuli/rescaled_final/0093_fw.mp4	0.0	112.65447402000427	
12	90.19656300544739	movie	1		245	10.0	2.5	/experiments/knapen_AOT/AOT_stimuli/rescaled_final/0093_fw.mp4	0.0	113.47098994255066	2.5003230571746826
12	90.98024415969849	pulse	1	t		10.0	2.5	/experiments/knapen_AOT/AOT_stimuli/rescaled_final/0093_fw.mp4	0.0	114.25467109680176	
12	92.58052706718445	pulse	1	t		10.0	2.5	/experiments/knapen_AOT/AOT_stimuli/rescaled_final/0093_fw.mp4	0.0	115.85495400428772	
12	92.69688606262207	fix_post	2		12	10.0	2.5	/experiments/knapen_AOT/AOT_stimuli/rescaled_final/0093_fw.mp4	0.0	115.97131299972534	0.10006403923034668
13	92.79695010185242	fix_pre	0		119	11.0	2.5	/experiments/knapen_AOT/AOT_stimuli/rescaled_final/0631_rv.mp4	0.0	116.07137703895569	0.9917850494384766
13	93.7887351512909	movie	1		245	11.0	2.5	/experiments/knapen_AOT/AOT_stimuli/rescaled_final/0631_rv.mp4	0.0	117.06316208839417	2.500391960144043
13	94.18084502220154	pulse	1	t		11.0	2.5	/experiments/knapen_AOT/AOT_stimuli/rescaled_final/0631_rv.mp4	0.0	117.45527195930481	
13	95.78098797798157	pulse	1	t		11.0	2.5	/experiments/knapen_AOT/AOT_stimuli/rescaled_final/0631_rv.mp4	0.0	119.05541491508484	
13	96.28912711143494	fix_post	2		12	11.0	2.5	/experiments/knapen_AOT/AOT_stimuli/rescaled_final/0631_rv.mp4	0.0	119.56355404853821	0.10004496574401855
14	96.38917207717896	fix_pre	0		120	12.0	2.5	blank	1.0	119.66359901428223	1.0001258850097656
14	97.38114309310913	pulse	0	t		12.0	2.5	blank	1.0	120.6555700302124	
14	97.38929796218872	movie	1		301	12.0	2.5	blank	1.0	120.66372489929199	2.508723020553589
14	98.98137712478638	pulse	1	t		12.0	2.5	blank	1.0	122.25580406188965	
14	99.89802098274231	fix_post	2		12	12.0	2.5	blank	1.0	123.17244791984558	0.1000051498413086
15	99.99802613258362	fix_pre	0		120	13.0	2.5	/experiments/knapen_AOT/AOT_stimuli/rescaled_final/0564_fw.mp4	0.0	123.27245306968689	1.0001418590545654
15	100.58168411254883	pulse	0	t		13.0	2.5	/experiments/knapen_AOT/AOT_stimuli/rescaled_final/0564_fw.mp4	0.0	123.8561110496521	
15	100.99816799163818	movie	1		243	13.0	2.5	/experiments/knapen_AOT/AOT_stimuli/rescaled_final/0564_fw.mp4	0.0	124.27259492874146	2.500425100326538
15	102.18197798728943	pulse	1	t		13.0	2.5	/experiments/knapen_AOT/AOT_stimuli/rescaled_final/0564_fw.mp4	0.0	125.4564049243927	
15	103.49859309196472	fix_post	2		12	13.0	2.5	/experiments/knapen_AOT/AOT_stimuli/rescaled_final/0564_fw.mp4	0.0	126.773020029068	0.09994101524353027
16	103.59853410720825	fix_pre	0		120	14.0	2.5	/experiments/knapen_AOT/AOT_stimuli/rescaled_final/0223_rv.mp4	0.0	126.87296104431152	1.0002238750457764
16	103.78209805488586	pulse	0	t		14.0	2.5	/experiments/knapen_AOT/AOT_stimuli/rescaled_final/0223_rv.mp4	0.0	127.05652499198914	
16	104.59875798225403	movie	1		243	14.0	2.5	/experiments/knapen_AOT/AOT_stimuli/rescaled_final/0223_rv.mp4	0.0	127.8731849193573	2.500347137451172
16	105.38243818283081	pulse	1	t		14.0	2.5	/experiments/knapen_AOT/AOT_stimuli/rescaled_final/0223_rv.mp4	0.0	128.65686511993408	
16	106.98272013664246	pulse	1	t		14.0	2.5	/experiments/knapen_AOT/AOT_stimuli/rescaled_final/0223_rv.mp4	0.0	130.25714707374573	
16	107.0991051197052	fix_post	2		12	14.0	2.5	/experiments/knapen_AOT/AOT_stimuli/rescaled_final/0223_rv.mp4	0.0	130.37353205680847	0.10002493858337402
17	107.19913005828857	fix_pre	0		120	15.0	2.5	/experiments/knapen_AOT/AOT_stimuli/rescaled_final/1491_fw.mp4	0.0	130.47355699539185	1.0001170635223389
17	108.19924712181091	movie	1		244	15.0	2.5	/experiments/knapen_AOT/AOT_stimuli/rescaled_final/1491_fw.mp4	0.0	131.47367405891418	2.4920108318328857
17	108.58395195007324	pulse	1	t		15.0	2.5	/experiments/knapen_AOT/AOT_stimuli/rescaled_final/1491_fw.mp4	0.0	131.8583788871765	
17	110.18305897712708	pulse	1	t		15.0	2.5	/experiments/knapen_AOT/AOT_stimuli/rescaled_final/1491_fw.mp4	0.0	133.45748591423035	
17	110.6912579536438	fix_post	2		12	15.0	2.5	/experiments/knapen_AOT/AOT_stimuli/rescaled_final/1491_fw.mp4	0.0	133.96568489074707	0.10008621215820312
18	110.791344165802	fix_pre	0		120	16.0	2.5	/experiments/knapen_AOT/AOT_stimuli/rescaled_final/1938_rv.mp4	0.0	134.06577110290527	1.0001049041748047
18	111.78336906433105	pulse	0	t		16.0	2.5	/experiments/knapen_AOT/AOT_stimuli/rescaled_final/1938_rv.mp4	0.0	135.05779600143433	
18	111.7914490699768	movie	1		248	16.0	2.5	/experiments/knapen_AOT/AOT_stimuli/rescaled_final/1938_rv.mp4	0.0	135.06587600708008	2.508692979812622
18	113.3845911026001	pulse	1	t		16.0	2.5	/experiments/knapen_AOT/AOT_stimuli/rescaled_final/1938_rv.mp4	0.0	136.65901803970337	
18	114.30014204978943	fix_post	2		12	16.0	2.5	/experiments/knapen_AOT/AOT_stimuli/rescaled_final/1938_rv.mp4	0.0	137.5745689868927	0.10002613067626953
19	114.4001681804657	fix_pre	0		120	17.0	2.5	/experiments/knapen_AOT/AOT_stimuli/rescaled_final/0689_fw.mp4	0.0	137.67459511756897	1.0001428127288818
19	114.97629404067993	pulse	0	t		17.0	2.5	/experiments/knapen_AOT/AOT_stimuli/rescaled_final/0689_fw.mp4	0.0	138.2507209777832	
19	115.40031099319458	movie	1		245	17.0	2.5	/experiments/knapen_AOT/AOT_stimuli/rescaled_final/0689_fw.mp4	0.0	138.67473793029785	2.500399112701416
19	116.57699704170227	pulse	1	t		17.0	2.5	/experiments/knapen_AOT/AOT_stimuli/rescaled_final/0689_fw.mp4	0.0	139.85142397880554	
19	117.900710105896	fix_post	2		12	17.0	2.5	/experiments/knapen_AOT/AOT_stimuli/rescaled_final/0689_fw.mp4	0.0	141.17513704299927	0.09996604919433594
20	118.00067615509033	fix_pre	0		120	18.0	2.5	/experiments/knapen_AOT/AOT_stimuli/rescaled_final/0112_rv.mp4	0.0	141.2751030921936	1.0001838207244873
20	118.1767590045929	pulse	0	t		18.0	2.5	/experiments/knapen_AOT/AOT_stimuli/rescaled_final/0112_rv.mp4	0.0	141.45118594169617	
20	119.00085997581482	movie	1		245	18.0	2.5	/experiments/knapen_AOT/AOT_stimuli/rescaled_final/0112_rv.mp4	0.0	142.2752869129181	2.5003511905670166
20	119.77634406089783	pulse	1	t		18.0	2.5	/experiments/knapen_AOT/AOT_stimuli/rescaled_final/0112_rv.mp4	0.0	143.0507709980011	
20	121.37638807296753	pulse	1	t		18.0	2.5	/experiments/knapen_AOT/AOT_stimuli/rescaled_final/0112_rv.mp4	0.0	144.6508150100708	
20	121.50121116638184	fix_post	2		12	18.0	2.5	/experiments/knapen_AOT/AOT_stimuli/rescaled_final/0112_rv.mp4	0.0	144.7756381034851	0.10000181198120117
21	121.60121297836304	fix_pre	0		120	19.0	2.5	/experiments/knapen_AOT/AOT_stimuli/rescaled_final/2172_rv.mp4	0.0	144.8756399154663	1.0002331733703613
21	122.6014461517334	movie	1		245	19.0	2.5	/experiments/knapen_AOT/AOT_stimuli/rescaled_final/2172_rv.mp4	0.0	145.87587308883667	2.492025852203369
21	122.97658896446228	pulse	1	t		19.0	2.5	/experiments/knapen_AOT/AOT_stimuli/rescaled_final/2172_rv.mp4	0.0	146.25101590156555	
21	124.57700300216675	pulse	1	t		19.0	2.5	/experiments/knapen_AOT/AOT_stimuli/rescaled_final/2172_rv.mp4	0.0	147.85142993927002	
21	125.09347200393677	fix_post	2		12	19.0	2.5	/experiments/knapen_AOT/AOT_stimuli/rescaled_final/2172_rv.mp4	0.0	148.36789894104004	0.09996199607849121
22	125.19343400001526	fix_pre	0		119	20.0	2.5	blank	1.0	148.46786093711853	0.9918971061706543
22	126.17708015441895	pulse	0	t		20.0	2.5	blank	1.0	149.45150709152222	
22	126.18533110618591	movie	1		301	20.0	2.5	blank	1.0	149.45975804328918	2.5086488723754883
22	127.77741813659668	pulse	1	t		20.0	2.5	blank	1.0	151.05184507369995	
22	128.6939799785614	fix_post	2		12	20.0	2.5	blank	1.0	151.96840691566467	0.1000051498413086
23	128.7939851284027	fix_pre	0		120	21.0	2.5	/experiments/knapen_AOT/AOT_stimuli/rescaled_final/1910_rv.mp4	0.0	152.06841206550598	1.0001418590545654
23	129.3776421546936	pulse	0	t		21.0	2.5	/experiments/knapen_AOT/AOT_stimuli/rescaled_final/1910_rv.mp4	0.0	152.65206909179688	
23	129.79412698745728	movie	1		245	21.0	2.5	/experiments/knapen_AOT/AOT_stimuli/rescaled_final/1910_rv.mp4	0.0	153.06855392456055	2.5003950595855713
23	130.97788214683533	pulse	1	t		21.0	2.5	/experiments/knapen_AOT/AOT_stimuli/rescaled_final/1910_rv.mp4	0.0	154.2523090839386	
23	132.29452204704285	fix_post	2		12	21.0	2.5	/experiments/knapen_AOT/AOT_stimuli/rescaled_final/1910_rv.mp4	0.0	155.56894898414612	0.09996509552001953
24	132.39448714256287	fix_pre	0		120	22.0	2.5	/experiments/knapen_AOT/AOT_stimuli/rescaled_final/1462_rv.mp4	0.0	155.66891407966614	1.000248908996582
24	132.57804703712463	pulse	0	t		22.0	2.5	/experiments/knapen_AOT/AOT_stimuli/rescaled_final/1462_rv.mp4	0.0	155.8524739742279	
24	133.39473605155945	movie	1		248	22.0	2.5	/experiments/knapen_AOT/AOT_stimuli/rescaled_final/1462_rv.mp4	0.0	156.66916298866272	2.500304937362671
24	134.17837405204773	pulse	1	t		22.0	2.5	/experiments/knapen_AOT/AOT_stimuli/rescaled_final/1462_rv.mp4	0.0	157.452800989151	
24	135.77860307693481	pulse	1	t		22.0	2.5	/experiments/knapen_AOT/AOT_stimuli/rescaled_final/1462_rv.mp4	0.0	159.0530300140381	
24	135.89504098892212	fix_post	2		12	22.0	2.5	/experiments/knapen_AOT/AOT_stimuli/rescaled_final/1462_rv.mp4	0.0	159.1694679260254	0.09997916221618652
25	135.9950201511383	fix_pre	0		119	23.0	2.5	/experiments/knapen_AOT/AOT_stimuli/rescaled_final/1309_fw.mp4	0.0	159.26944708824158	0.9918668270111084
25	136.9868869781494	movie	1		244	23.0	2.5	/experiments/knapen_AOT/AOT_stimuli/rescaled_final/1309_fw.mp4	0.0	160.26131391525269	2.5003931522369385
25	137.37896513938904	pulse	1	t		23.0	2.5	/experiments/knapen_AOT/AOT_stimuli/rescaled_final/1309_fw.mp4	0.0	160.6533920764923	
25	138.97923302650452	pulse	1	t		23.0	2.5	/experiments/knapen_AOT/AOT_stimuli/rescaled_final/1309_fw.mp4	0.0	162.2536599636078	
25	139.48728013038635	fix_post	2		12	23.0	2.5	/experiments/knapen_AOT/AOT_stimuli/rescaled_final/1309_fw.mp4	0.0	162.76170706748962	0.09995484352111816
26	139.58723497390747	fix_pre	0		120	24.0	2.5	/experiments/knapen_AOT/AOT_stimuli/rescaled_final/0721_rv.mp4	0.0	162.86166191101074	1.0002241134643555
26	140.5793480873108	pulse	0	t		24.0	2.5	/experiments/knapen_AOT/AOT_stimuli/rescaled_final/0721_rv.mp4	0.0	163.85377502441406	
26	140.58745908737183	movie	1		245	24.0	2.5	/experiments/knapen_AOT/AOT_stimuli/rescaled_final/0721_rv.mp4	0.0	163.8618860244751	2.5101089477539062
26	142.18002796173096	pulse	1	t		24.0	2.5	/experiments/knapen_AOT/AOT_stimuli/rescaled_final/0721_rv.mp4	0.0	165.45445489883423	
26	143.09756803512573	fix_post	2		9	24.0	2.5	/experiments/knapen_AOT/AOT_stimuli/rescaled_final/0721_rv.mp4	0.0	166.371994972229	0.09856510162353516
27	143.19613313674927	fix_pre	0		120	25.0	2.5	/experiments/knapen_AOT/AOT_stimuli/rescaled_final/0962_fw.mp4	0.0	166.47056007385254	1.0001330375671387
27	143.77981114387512	pulse	0	t		25.0	2.5	/experiments/knapen_AOT/AOT_stimuli/rescaled_final/0962_fw.mp4	0.0	167.0542380809784	
27	144.1962661743164	movie	1		246	25.0	2.5	/experiments/knapen_AOT/AOT_stimuli/rescaled_final/0962_fw.mp4	0.0	167.47069311141968	2.5003697872161865
27	145.380028963089	pulse	1	t		25.0	2.5	/experiments/knapen_AOT/AOT_stimuli/rescaled_final/0962_fw.mp4	0.0	168.65445590019226	
27	146.6966359615326	fix_post	2		12	25.0	2.5	/experiments/knapen_AOT/AOT_stimuli/rescaled_final/0962_fw.mp4	0.0	169.97106289863586	0.10001206398010254
28	146.7966480255127	fix_pre	0		120	26.0	2.5	/experiments/knapen_AOT/AOT_stimuli/rescaled_final/1803_fw.mp4	0.0	170.07107496261597	1.0001630783081055
28	146.98019194602966	pulse	0	t		26.0	2.5	/experiments/knapen_AOT/AOT_stimuli/rescaled_final/1803_fw.mp4	0.0	170.25461888313293	
28	147.7968111038208	movie	1		243	26.0	2.5	/experiments/knapen_AOT/AOT_stimuli/rescaled_final/1803_fw.mp4	0.0	171.07123804092407	2.5004630088806152
28	148.58058404922485	pulse	1	t		26.0	2.5	/experiments/knapen_AOT/AOT_stimuli/rescaled_final/1803_fw.mp4	0.0	171.85501098632812	
28	150.18082904815674	pulse	1	t		26.0	2.5	/experiments/knapen_AOT/AOT_stimuli/rescaled_final/1803_fw.mp4	0.0	173.45525598526	
28	150.29727411270142	fix_post	2		12	26.0	2.5	/experiments/knapen_AOT/AOT_stimuli/rescaled_final/1803_fw.mp4	0.0	173.5717010498047	0.09990787506103516
29	150.39718198776245	fix_pre	0		120	27.0	2.5	blank	1.0	173.67160892486572	1.000171184539795
29	151.39735317230225	movie	1		299	27.0	2.5	blank	1.0	174.67178010940552	2.492050886154175
29	151.78100514411926	pulse	1	t		27.0	2.5	blank	1.0	175.05543208122253	
29	153.381196975708	pulse	1	t		27.0	2.5	blank	1.0	176.65562391281128	
29	153.88940405845642	fix_post	2		12	27.0	2.5	blank	1.0	177.1638309955597	0.10001993179321289
30	153.98942399024963	fix_pre	0		120	28.0	2.5	/experiments/knapen_AOT/AOT_stimuli/rescaled_final/0652_fw.mp4	0.0	177.2638509273529	1.0001161098480225
30	154.98149704933167	pulse	0	t		28.0	2.5	/experiments/knapen_AOT/AOT_stimuli/rescaled_final/0652_fw.mp4	0.0	178.25592398643494	
30	154.98954010009766	movie	1		245	28.0	2.5	/experiments/knapen_AOT/AOT_stimuli/rescaled_final/0652_fw.mp4	0.0	178.26396703720093	2.508715867996216
30	156.58214807510376	pulse	1	t		28.0	2.5	/experiments/knapen_AOT/AOT_stimuli/rescaled_final/0652_fw.mp4	0.0	179.85657501220703	
30	157.49825596809387	fix_post	2		12	28.0	2.5	/experiments/knapen_AOT/AOT_stimuli/rescaled_final/0652_fw.mp4	0.0	180.77268290519714	0.10005307197570801
31	157.59830904006958	fix_pre	0		120	29.0	2.5	/experiments/knapen_AOT/AOT_stimuli/rescaled_final/0432_rv.mp4	0.0	180.87273597717285	1.0001389980316162
31	158.1819851398468	pulse	0	t		29.0	2.5	/experiments/knapen_AOT/AOT_stimuli/rescaled_final/0432_rv.mp4	0.0	181.45641207695007	
31	158.5984480381012	movie	1		245	29.0	2.5	/experiments/knapen_AOT/AOT_stimuli/rescaled_final/0432_rv.mp4	0.0	181.87287497520447	2.5003440380096436
31	159.7822070121765	pulse	1	t		29.0	2.5	/experiments/knapen_AOT/AOT_stimuli/rescaled_final/0432_rv.mp4	0.0	183.05663394927979	
31	161.09879207611084	fix_post	2		12	29.0	2.5	/experiments/knapen_AOT/AOT_stimuli/rescaled_final/0432_rv.mp4	0.0	184.3732190132141	0.10002994537353516
32	161.19882202148438	fix_pre	0		120	30.0	2.5	/experiments/knapen_AOT/AOT_stimuli/rescaled_final/2110_rv.mp4	0.0	184.47324895858765	1.0001640319824219
32	161.3824281692505	pulse	0	t		30.0	2.5	/experiments/knapen_AOT/AOT_stimuli/rescaled_final/2110_rv.mp4	0.0	184.65685510635376	
32	162.1989860534668	movie	1		246	30.0	2.5	/experiments/knapen_AOT/AOT_stimuli/rescaled_final/2110_rv.mp4	0.0	185.47341299057007	2.5004160404205322
32	162.9827311038971	pulse	1	t		30.0	2.5	/experiments/knapen_AOT/AOT_stimuli/rescaled_final/2110_rv.mp4	0.0	186.25715804100037	
32	164.5829939842224	pulse	1	t		30.0	2.5	/experiments/knapen_AOT/AOT_stimuli/rescaled_final/2110_rv.mp4	0.0	187.85742092132568	
32	164.69940209388733	fix_post	2		12	30.0	2.5	/experiments/knapen_AOT/AOT_stimuli/rescaled_final/2110_rv.mp4	0.0	187.9738290309906	0.10001802444458008
33	164.7994201183319	fix_pre	0		120	31.0	2.5	/experiments/knapen_AOT/AOT_stimuli/rescaled_final/0010_fw.mp4	0.0	188.07384705543518	1.0000858306884766
33	165.79950594902039	movie	1		244	31.0	2.5	/experiments/knapen_AOT/AOT_stimuli/rescaled_final/0010_fw.mp4	0.0	189.07393288612366	2.492000102996826
33	166.18734312057495	pulse	1	t		31.0	2.5	/experiments/knapen_AOT/AOT_stimuli/rescaled_final/0010_fw.mp4	0.0	189.46177005767822	
33	167.78332614898682	pulse	1	t		31.0	2.5	/experiments/knapen_AOT/AOT_stimuli/rescaled_final/0010_fw.mp4	0.0	191.0577530860901	
33	168.2915060520172	fix_post	2		12	31.0	2.5	/experiments/knapen_AOT/AOT_stimuli/rescaled_final/0010_fw.mp4	0.0	191.56593298912048	0.10004997253417969
34	168.3915560245514	fix_pre	0		120	32.0	2.5	/experiments/knapen_AOT/AOT_stimuli/rescaled_final/1901_rv.mp4	0.0	191.66598296165466	1.0001649856567383
34	169.38363814353943	pulse	0	t		32.0	2.5	/experiments/knapen_AOT/AOT_stimuli/rescaled_final/1901_rv.mp4	0.0	192.6580650806427	
34	169.39172101020813	movie	1		245	32.0	2.5	/experiments/knapen_AOT/AOT_stimuli/rescaled_final/1901_rv.mp4	0.0	192.6661479473114	2.5087430477142334
34	170.9880290031433	pulse	1	t		32.0	2.5	/experiments/knapen_AOT/AOT_stimuli/rescaled_final/1901_rv.mp4	0.0	194.26245594024658	
34	171.90046405792236	fix_post	2		12	32.0	2.5	/experiments/knapen_AOT/AOT_stimuli/rescaled_final/1901_rv.mp4	0.0	195.17489099502563	0.09999299049377441
35	172.00045704841614	fix_pre	0		120	33.0	2.5	/experiments/knapen_AOT/AOT_stimuli/rescaled_final/1498_rv.mp4	0.0	195.2748839855194	1.0001320838928223
35	172.5840401649475	pulse	0	t		33.0	2.5	/experiments/knapen_AOT/AOT_stimuli/rescaled_final/1498_rv.mp4	0.0	195.85846710205078	
35	173.00058913230896	movie	1		244	33.0	2.5	/experiments/knapen_AOT/AOT_stimuli/rescaled_final/1498_rv.mp4	0.0	196.27501606941223	2.5003418922424316
35	174.1843559741974	pulse	1	t		33.0	2.5	/experiments/knapen_AOT/AOT_stimuli/rescaled_final/1498_rv.mp4	0.0	197.45878291130066	
35	175.5009310245514	fix_post	2		12	33.0	2.5	/experiments/knapen_AOT/AOT_stimuli/rescaled_final/1498_rv.mp4	0.0	198.77535796165466	0.10001111030578613
36	175.60094213485718	fix_pre	0		120	34.0	2.5	blank	1.0	198.87536907196045	1.0001800060272217
36	175.77703309059143	pulse	0	t		34.0	2.5	blank	1.0	199.0514600276947	
36	176.6011221408844	movie	1		300	34.0	2.5	blank	1.0	199.87554907798767	2.5003838539123535
36	177.37719702720642	pulse	1	t		34.0	2.5	blank	1.0	200.6516239643097	
36	178.9774730205536	pulse	1	t		34.0	2.5	blank	1.0	202.25189995765686	
36	179.10150599479675	fix_post	2		12	34.0	2.5	blank	1.0	202.37593293190002	0.09999418258666992
37	179.20150017738342	fix_pre	0		120	35.0	2.5	/experiments/knapen_AOT/AOT_stimuli/rescaled_final/0475_rv.mp4	0.0	202.4759271144867	1.0001897811889648
37	180.2016899585724	movie	1		242	35.0	2.5	/experiments/knapen_AOT/AOT_stimuli/rescaled_final/0475_rv.mp4	0.0	203.47611689567566	2.492042064666748
37	180.58573603630066	pulse	1	t		35.0	2.5	/experiments/knapen_AOT/AOT_stimuli/rescaled_final/0475_rv.mp4	0.0	203.86016297340393	
37	182.1772391796112	pulse	1	t		35.0	2.5	/experiments/knapen_AOT/AOT_stimuli/rescaled_final/0475_rv.mp4	0.0	205.45166611671448	
37	182.69373202323914	fix_post	2		12	35.0	2.5	/experiments/knapen_AOT/AOT_stimuli/rescaled_final/0475_rv.mp4	0.0	205.9681589603424	0.09997701644897461
38	182.7937090396881	fix_pre	0		119	36.0	2.5	/experiments/knapen_AOT/AOT_stimuli/rescaled_final/0116_rv.mp4	0.0	206.06813597679138	0.991826057434082
38	183.77731108665466	pulse	0	t		36.0	2.5	/experiments/knapen_AOT/AOT_stimuli/rescaled_final/0116_rv.mp4	0.0	207.05173802375793	
38	183.7855350971222	movie	1		245	36.0	2.5	/experiments/knapen_AOT/AOT_stimuli/rescaled_final/0116_rv.mp4	0.0	207.05996203422546	2.508707046508789
38	185.37802410125732	pulse	1	t		36.0	2.5	/experiments/knapen_AOT/AOT_stimuli/rescaled_final/0116_rv.mp4	0.0	208.6524510383606	
38	186.29424214363098	fix_post	2		12	36.0	2.5	/experiments/knapen_AOT/AOT_stimuli/rescaled_final/0116_rv.mp4	0.0	209.56866908073425	0.09999799728393555
39	186.39424014091492	fix_pre	0		120	37.0	2.5	/experiments/knapen_AOT/AOT_stimuli/rescaled_final/0646_rv.mp4	0.0	209.6686670780182	1.0001540184020996
39	186.97793698310852	pulse	0	t		37.0	2.5	/experiments/knapen_AOT/AOT_stimuli/rescaled_final/0646_rv.mp4	0.0	210.2523639202118	
39	187.39439415931702	movie	1		245	37.0	2.5	/experiments/knapen_AOT/AOT_stimuli/rescaled_final/0646_rv.mp4	0.0	210.6688210964203	2.500347852706909
39	188.57818412780762	pulse	1	t		37.0	2.5	/experiments/knapen_AOT/AOT_stimuli/rescaled_final/0646_rv.mp4	0.0	211.8526110649109	
39	189.89474201202393	fix_post	2		12	37.0	2.5	/experiments/knapen_AOT/AOT_stimuli/rescaled_final/0646_rv.mp4	0.0	213.1691689491272	0.10007095336914062
40	189.99481296539307	fix_pre	0		120	38.0	2.5	/experiments/knapen_AOT/AOT_stimuli/rescaled_final/1099_rv.mp4	0.0	213.26923990249634	1.0001170635223389
40	190.17833614349365	pulse	0	t		38.0	2.5	/experiments/knapen_AOT/AOT_stimuli/rescaled_final/1099_rv.mp4	0.0	213.45276308059692	
40	190.9949300289154	movie	1		244	38.0	2.5	/experiments/knapen_AOT/AOT_stimuli/rescaled_final/1099_rv.mp4	0.0	214.26935696601868	2.5004210472106934
40	191.77857112884521	pulse	1	t		38.0	2.5	/experiments/knapen_AOT/AOT_stimuli/rescaled_final/1099_rv.mp4	0.0	215.0529980659485	
40	193.37898206710815	pulse	1	t		38.0	2.5	/experiments/knapen_AOT/AOT_stimuli/rescaled_final/1099_rv.mp4	0.0	216.65340900421143	
40	193.4953510761261	fix_post	2		12	38.0	2.5	/experiments/knapen_AOT/AOT_stimuli/rescaled_final/1099_rv.mp4	0.0	216.76977801322937	0.09998798370361328
41	193.5953390598297	fix_pre	0		119	39.0	2.5	/experiments/knapen_AOT/AOT_stimuli/rescaled_final/0195_rv.mp4	0.0	216.86976599693298	0.9917869567871094
41	194.58712601661682	movie	1		244	39.0	2.5	/experiments/knapen_AOT/AOT_stimuli/rescaled_final/0195_rv.mp4	0.0	217.8615529537201	2.5003960132598877
41	194.9791760444641	pulse	1	t		39.0	2.5	/experiments/knapen_AOT/AOT_stimuli/rescaled_final/0195_rv.mp4	0.0	218.25360298156738	
41	196.5794060230255	pulse	1	t		39.0	2.5	/experiments/knapen_AOT/AOT_stimuli/rescaled_final/0195_rv.mp4	0.0	219.85383296012878	
41	197.0875220298767	fix_post	2		12	39.0	2.5	/experiments/knapen_AOT/AOT_stimuli/rescaled_final/0195_rv.mp4	0.0	220.36194896697998	0.10001707077026367
42	197.18753910064697	fix_pre	0		120	40.0	2.5	/experiments/knapen_AOT/AOT_stimuli/rescaled_final/1965_fw.mp4	0.0	220.46196603775024	1.0001459121704102
42	198.1795151233673	pulse	0	t		40.0	2.5	/experiments/knapen_AOT/AOT_stimuli/rescaled_final/1965_fw.mp4	0.0	221.45394206047058	
42	198.18768501281738	movie	1		246	40.0	2.5	/experiments/knapen_AOT/AOT_stimuli/rescaled_final/1965_fw.mp4	0.0	221.46211194992065	2.5087080001831055
42	199.78331017494202	pulse	1	t		40.0	2.5	/experiments/knapen_AOT/AOT_stimuli/rescaled_final/1965_fw.mp4	0.0	223.0577371120453	
42	200.6963930130005	fix_post	2		8	40.0	2.5	/experiments/knapen_AOT/AOT_stimuli/rescaled_final/1965_fw.mp4	0.0	223.97081995010376	0.1000051498413086
43	200.7963981628418	fix_pre	0		120	41.0	2.5	blank	1.0	224.07082509994507	1.0001769065856934
43	201.38005900382996	pulse	0	t		41.0	2.5	blank	1.0	224.65448594093323	
43	201.7965750694275	movie	1		300	41.0	2.5	blank	1.0	225.07100200653076	2.5003340244293213
43	202.98023414611816	pulse	1	t		41.0	2.5	blank	1.0	226.25466108322144	
43	204.2969090938568	fix_post	2		12	41.0	2.5	blank	1.0	227.57133603096008	0.09999203681945801
44	204.39690113067627	fix_pre	0		120	42.0	2.5	/experiments/knapen_AOT/AOT_stimuli/rescaled_final/1931_rv.mp4	0.0	227.67132806777954	1.0002069473266602
44	204.5805320739746	pulse	0	t		42.0	2.5	/experiments/knapen_AOT/AOT_stimuli/rescaled_final/1931_rv.mp4	0.0	227.85495901107788	
44	205.39710807800293	movie	1		244	42.0	2.5	/experiments/knapen_AOT/AOT_stimuli/rescaled_final/1931_rv.mp4	0.0	228.6715350151062	2.5003230571746826
44	206.18071699142456	pulse	1	t		42.0	2.5	/experiments/knapen_AOT/AOT_stimuli/rescaled_final/1931_rv.mp4	0.0	229.45514392852783	
44	207.78098011016846	pulse	1	t		42.0	2.5	/experiments/knapen_AOT/AOT_stimuli/rescaled_final/1931_rv.mp4	0.0	231.05540704727173	
44	207.8974311351776	fix_post	2		12	42.0	2.5	/experiments/knapen_AOT/AOT_stimuli/rescaled_final/1931_rv.mp4	0.0	231.17185807228088	0.10002303123474121
45	207.99745416641235	fix_pre	0		120	43.0	2.5	/experiments/knapen_AOT/AOT_stimuli/rescaled_final/0405_fw.mp4	0.0	231.27188110351562	1.00022292137146
45	208.9976770877838	movie	1		243	43.0	2.5	/experiments/knapen_AOT/AOT_stimuli/rescaled_final/0405_fw.mp4	0.0	232.27210402488708	2.4920520782470703
45	209.38154697418213	pulse	1	t		43.0	2.5	/experiments/knapen_AOT/AOT_stimuli/rescaled_final/0405_fw.mp4	0.0	232.6559739112854	
45	210.98149299621582	pulse	1	t		43.0	2.5	/experiments/knapen_AOT/AOT_stimuli/rescaled_final/0405_fw.mp4	0.0	234.2559199333191	
45	211.48972916603088	fix_post	2		12	43.0	2.5	/experiments/knapen_AOT/AOT_stimuli/rescaled_final/0405_fw.mp4	0.0	234.76415610313416	0.09991097450256348
46	211.58964014053345	fix_pre	0		120	44.0	2.5	/experiments/knapen_AOT/AOT_stimuli/rescaled_final/1045_rv.mp4	0.0	234.86406707763672	1.000213861465454
46	212.58170914649963	pulse	0	t		44.0	2.5	/experiments/knapen_AOT/AOT_stimuli/rescaled_final/1045_rv.mp4	0.0	235.8561360836029	
46	212.5898540019989	movie	1		246	44.0	2.5	/experiments/knapen_AOT/AOT_stimuli/rescaled_final/1045_rv.mp4	0.0	235.86428093910217	2.508761167526245
46	214.1829960346222	pulse	1	t		44.0	2.5	/experiments/knapen_AOT/AOT_stimuli/rescaled_final/1045_rv.mp4	0.0	237.45742297172546	
46	215.09861516952515	fix_post	2		12	44.0	2.5	/experiments/knapen_AOT/AOT_stimuli/rescaled_final/1045_rv.mp4	0.0	238.37304210662842	0.09995579719543457
47	215.19857096672058	fix_pre	0		120	45.0	2.5	/experiments/knapen_AOT/AOT_stimuli/rescaled_final/1154_rv.mp4	0.0	238.47299790382385	1.0001881122589111
47	215.78220796585083	pulse	0	t		45.0	2.5	/experiments/knapen_AOT/AOT_stimuli/rescaled_final/1154_rv.mp4	0.0	239.0566349029541	
47	216.1987590789795	movie	1		244	45.0	2.5	/experiments/knapen_AOT/AOT_stimuli/rescaled_final/1154_rv.mp4	0.0	239.47318601608276	2.5003280639648438
47	217.38256406784058	pulse	1	t		45.0	2.5	/experiments/knapen_AOT/AOT_stimuli/rescaled_final/1154_rv.mp4	0.0	240.65699100494385	
47	218.69908714294434	fix_post	2		12	45.0	2.5	/experiments/knapen_AOT/AOT_stimuli/rescaled_final/1154_rv.mp4	0.0	241.9735140800476	0.09998393058776855
48	218.7990710735321	fix_pre	0		120	46.0	2.5	/experiments/knapen_AOT/AOT_stimuli/rescaled_final/0676_fw.mp4	0.0	242.07349801063538	1.00018310546875
48	218.98269414901733	pulse	0	t		46.0	2.5	/experiments/knapen_AOT/AOT_stimuli/rescaled_final/0676_fw.mp4	0.0	242.2571210861206	
48	219.79925417900085	movie	1		243	46.0	2.5	/experiments/knapen_AOT/AOT_stimuli/rescaled_final/0676_fw.mp4	0.0	243.07368111610413	2.500365972518921
48	220.58290600776672	pulse	1	t		46.0	2.5	/experiments/knapen_AOT/AOT_stimuli/rescaled_final/0676_fw.mp4	0.0	243.85733294487	
48	222.1834111213684	pulse	1	t		46.0	2.5	/experiments/knapen_AOT/AOT_stimuli/rescaled_final/0676_fw.mp4	0.0	245.45783805847168	
48	222.29962015151978	fix_post	2		12	46.0	2.5	/experiments/knapen_AOT/AOT_stimuli/rescaled_final/0676_fw.mp4	0.0	245.57404708862305	0.09999394416809082
49	222.39961409568787	fix_pre	0		119	47.0	2.5	/experiments/knapen_AOT/AOT_stimuli/rescaled_final/0223_fw.mp4	0.0	245.67404103279114	0.9917910099029541
49	223.39140510559082	movie	1		243	47.0	2.5	/experiments/knapen_AOT/AOT_stimuli/rescaled_final/0223_fw.mp4	0.0	246.6658320426941	2.5003809928894043
49	223.78345012664795	pulse	1	t		47.0	2.5	/experiments/knapen_AOT/AOT_stimuli/rescaled_final/0223_fw.mp4	0.0	247.05787706375122	
49	225.38370299339294	pulse	1	t		47.0	2.5	/experiments/knapen_AOT/AOT_stimuli/rescaled_final/0223_fw.mp4	0.0	248.65812993049622	
49	225.89178609848022	fix_post	2		12	47.0	2.5	/experiments/knapen_AOT/AOT_stimuli/rescaled_final/0223_fw.mp4	0.0	249.1662130355835	0.10003304481506348
50	225.9918191432953	fix_pre	0		120	48.0	2.5	blank	1.0	249.26624608039856	1.0001859664916992
50	226.98386597633362	pulse	0	t		48.0	2.5	blank	1.0	250.2582929134369	
50	226.992005109787	movie	1		301	48.0	2.5	blank	1.0	250.26643204689026	2.5086958408355713
50	228.57661509513855	pulse	1	t		48.0	2.5	blank	1.0	251.85104203224182	
50	229.50070095062256	fix_post	2		12	48.0	2.5	blank	1.0	252.77512788772583	0.10000920295715332
51	229.6007101535797	fix_pre	0		120	49.0	2.5	/experiments/knapen_AOT/AOT_stimuli/rescaled_final/0676_fw.mp4	0.0	252.87513709068298	1.000147819519043
51	230.17687010765076	pulse	0	t		49.0	2.5	/experiments/knapen_AOT/AOT_stimuli/rescaled_final/0676_fw.mp4	0.0	253.45129704475403	
51	230.60085797309875	movie	1		244	49.0	2.5	/experiments/knapen_AOT/AOT_stimuli/rescaled_final/0676_fw.mp4	0.0	253.87528491020203	2.5003771781921387
51	231.77690601348877	pulse	1	t		49.0	2.5	/experiments/knapen_AOT/AOT_stimuli/rescaled_final/0676_fw.mp4	0.0	255.05133295059204	
51	233.1012351512909	fix_post	2		12	49.0	2.5	/experiments/knapen_AOT/AOT_stimuli/rescaled_final/0676_fw.mp4	0.0	256.37566208839417	0.09998893737792969
52	233.20122408866882	fix_pre	0		120	50.0	2.5	/experiments/knapen_AOT/AOT_stimuli/rescaled_final/0080_rv.mp4	0.0	256.4756510257721	1.0001490116119385
52	233.3772521018982	pulse	0	t		50.0	2.5	/experiments/knapen_AOT/AOT_stimuli/rescaled_final/0080_rv.mp4	0.0	256.65167903900146	
52	234.20137310028076	movie	1		245	50.0	2.5	/experiments/knapen_AOT/AOT_stimuli/rescaled_final/0080_rv.mp4	0.0	257.47580003738403	2.5004160404205322
52	234.97684907913208	pulse	1	t		50.0	2.5	/experiments/knapen_AOT/AOT_stimuli/rescaled_final/0080_rv.mp4	0.0	258.25127601623535	
52	236.5769100189209	pulse	1	t		50.0	2.5	/experiments/knapen_AOT/AOT_stimuli/rescaled_final/0080_rv.mp4	0.0	259.85133695602417	
52	236.7017891407013	fix_post	2		12	50.0	2.5	/experiments/knapen_AOT/AOT_stimuli/rescaled_final/0080_rv.mp4	0.0	259.97621607780457	0.09999203681945801
53	236.80178117752075	fix_pre	0		120	51.0	2.5	/experiments/knapen_AOT/AOT_stimuli/rescaled_final/1462_rv.mp4	0.0	260.076208114624	1.0001378059387207
53	237.80191898345947	movie	1		247	51.0	2.5	/experiments/knapen_AOT/AOT_stimuli/rescaled_final/1462_rv.mp4	0.0	261.07634592056274	2.492048978805542
53	238.1771490573883	pulse	1	t		51.0	2.5	/experiments/knapen_AOT/AOT_stimuli/rescaled_final/1462_rv.mp4	0.0	261.4515759944916	
53	239.7776370048523	pulse	1	t		51.0	2.5	/experiments/knapen_AOT/AOT_stimuli/rescaled_final/1462_rv.mp4	0.0	263.05206394195557	
53	240.29396796226501	fix_post	2		12	51.0	2.5	/experiments/knapen_AOT/AOT_stimuli/rescaled_final/1462_rv.mp4	0.0	263.5683948993683	0.1000220775604248
54	240.39399003982544	fix_pre	0		119	52.0	2.5	/experiments/knapen_AOT/AOT_stimuli/rescaled_final/1901_fw.mp4	0.0	263.6684169769287	0.99180006980896
54	241.37773394584656	pulse	0	t		52.0	2.5	/experiments/knapen_AOT/AOT_stimuli/rescaled_final/1901_fw.mp4	0.0	264.65216088294983	
54	241.3857901096344	movie	1		246	52.0	2.5	/experiments/knapen_AOT/AOT_stimuli/rescaled_final/1901_fw.mp4	0.0	264.66021704673767	2.508720874786377
54	242.9786021709442	pulse	1	t		52.0	2.5	/experiments/knapen_AOT/AOT_stimuli/rescaled_final/1901_fw.mp4	0.0	266.2530291080475	
54	243.89451098442078	fix_post	2		12	52.0	2.5	/experiments/knapen_AOT/AOT_stimuli/rescaled_final/1901_fw.mp4	0.0	267.16893792152405	0.10000014305114746
55	243.99451112747192	fix_pre	0		120	53.0	2.5	/experiments/knapen_AOT/AOT_stimuli/rescaled_final/1668_rv.mp4	0.0	267.2689380645752	1.0001728534698486
55	244.5781421661377	pulse	0	t		53.0	2.5	/experiments/knapen_AOT/AOT_stimuli/rescaled_final/1668_rv.mp4	0.0	267.85256910324097	
55	244.99468398094177	movie	1		243	53.0	2.5	/experiments/knapen_AOT/AOT_stimuli/rescaled_final/1668_rv.mp4	0.0	268.26911091804504	2.5003440380096436
55	246.1784770488739	pulse	1	t		53.0	2.5	/experiments/knapen_AOT/AOT_stimuli/rescaled_final/1668_rv.mp4	0.0	269.4529039859772	
55	247.49502801895142	fix_post	2		12	53.0	2.5	/experiments/knapen_AOT/AOT_stimuli/rescaled_final/1668_rv.mp4	0.0	270.7694549560547	0.10003805160522461
56	247.59506607055664	fix_pre	0		120	54.0	2.5	/experiments/knapen_AOT/AOT_stimuli/rescaled_final/0580_rv.mp4	0.0	270.8694930076599	1.0001130104064941
56	247.77867102622986	pulse	0	t		54.0	2.5	/experiments/knapen_AOT/AOT_stimuli/rescaled_final/0580_rv.mp4	0.0	271.05309796333313	
56	248.59517908096313	movie	1		243	54.0	2.5	/experiments/knapen_AOT/AOT_stimuli/rescaled_final/0580_rv.mp4	0.0	271.8696060180664	2.5003879070281982
56	249.37890911102295	pulse	1	t		54.0	2.5	/experiments/knapen_AOT/AOT_stimuli/rescaled_final/0580_rv.mp4	0.0	272.6533360481262	
56	250.97902512550354	pulse	1	t		54.0	2.5	/experiments/knapen_AOT/AOT_stimuli/rescaled_final/0580_rv.mp4	0.0	274.2534520626068	
56	251.09556698799133	fix_post	2		12	54.0	2.5	/experiments/knapen_AOT/AOT_stimuli/rescaled_final/0580_rv.mp4	0.0	274.3699939250946	0.10004806518554688
57	251.19561505317688	fix_pre	0		120	55.0	2.5	blank	1.0	274.47004199028015	1.000119924545288
57	252.19573497772217	movie	1		299	55.0	2.5	blank	1.0	275.47016191482544	2.4920451641082764
57	252.57932901382446	pulse	1	t		55.0	2.5	blank	1.0	275.85375595092773	
57	254.17969012260437	pulse	1	t		55.0	2.5	blank	1.0	277.45411705970764	
57	254.68778014183044	fix_post	2		12	55.0	2.5	blank	1.0	277.9622070789337	0.10000085830688477
58	254.78778100013733	fix_pre	0		120	56.0	2.5	/experiments/knapen_AOT/AOT_stimuli/rescaled_final/1840_fw.mp4	0.0	278.0622079372406	1.0001490116119385
58	255.77987003326416	pulse	0	t		56.0	2.5	/experiments/knapen_AOT/AOT_stimuli/rescaled_final/1840_fw.mp4	0.0	279.05429697036743	
58	255.78793001174927	movie	1		244	56.0	2.5	/experiments/knapen_AOT/AOT_stimuli/rescaled_final/1840_fw.mp4	0.0	279.06235694885254	2.5087931156158447
58	257.38093400001526	pulse	1	t		56.0	2.5	/experiments/knapen_AOT/AOT_stimuli/rescaled_final/1840_fw.mp4	0.0	280.65536093711853	
58	258.2967231273651	fix_post	2		12	56.0	2.5	/experiments/knapen_AOT/AOT_stimuli/rescaled_final/1840_fw.mp4	0.0	281.5711500644684	0.09995889663696289
59	258.3966820240021	fix_pre	0		120	57.0	2.5	/experiments/knapen_AOT/AOT_stimuli/rescaled_final/0093_rv.mp4	0.0	281.67110896110535	1.0001029968261719
59	258.9803740978241	pulse	0	t		57.0	2.5	/experiments/knapen_AOT/AOT_stimuli/rescaled_final/0093_rv.mp4	0.0	282.25480103492737	
59	259.39678502082825	movie	1		245	57.0	2.5	/experiments/knapen_AOT/AOT_stimuli/rescaled_final/0093_rv.mp4	0.0	282.6712119579315	2.500365972518921
59	260.58064913749695	pulse	1	t		57.0	2.5	/experiments/knapen_AOT/AOT_stimuli/rescaled_final/0093_rv.mp4	0.0	283.8550760746002	
59	261.89715099334717	fix_post	2		12	57.0	2.5	/experiments/knapen_AOT/AOT_stimuli/rescaled_final/0093_rv.mp4	0.0	285.17157793045044	0.10004806518554688
60	261.9971990585327	fix_pre	0		120	58.0	2.5	/experiments/knapen_AOT/AOT_stimuli/rescaled_final/1472_fw.mp4	0.0	285.271625995636	1.0011889934539795
60	262.1808271408081	pulse	0	t		58.0	2.5	/experiments/knapen_AOT/AOT_stimuli/rescaled_final/1472_fw.mp4	0.0	285.4552540779114	
60	262.9983880519867	movie	1		242	58.0	2.5	/experiments/knapen_AOT/AOT_stimuli/rescaled_final/1472_fw.mp4	0.0	286.27281498908997	2.4993789196014404
60	263.7811470031738	pulse	1	t		58.0	2.5	/experiments/knapen_AOT/AOT_stimuli/rescaled_final/1472_fw.mp4	0.0	287.0555739402771	
60	265.3788740634918	pulse	1	t		58.0	2.5	/experiments/knapen_AOT/AOT_stimuli/rescaled_final/1472_fw.mp4	0.0	288.6533010005951	
60	265.49776697158813	fix_post	2		12	58.0	2.5	/experiments/knapen_AOT/AOT_stimuli/rescaled_final/1472_fw.mp4	0.0	288.7721939086914	0.09999799728393555
61	265.59776496887207	fix_pre	0		120	59.0	2.5	/experiments/knapen_AOT/AOT_stimuli/rescaled_final/0232_fw.mp4	0.0	288.87219190597534	1.0001301765441895
61	266.59789514541626	movie	1		243	59.0	2.5	/experiments/knapen_AOT/AOT_stimuli/rescaled_final/0232_fw.mp4	0.0	289.87232208251953	2.4920268058776855
61	266.982115983963	pulse	1	t		59.0	2.5	/experiments/knapen_AOT/AOT_stimuli/rescaled_final/0232_fw.mp4	0.0	290.2565429210663	
61	268.58180499076843	pulse	1	t		59.0	2.5	/experiments/knapen_AOT/AOT_stimuli/rescaled_final/0232_fw.mp4	0.0	291.8562319278717	
61	269.08992195129395	fix_post	2		12	59.0	2.5	/experiments/knapen_AOT/AOT_stimuli/rescaled_final/0232_fw.mp4	0.0	292.3643488883972	0.10001206398010254
62	269.18993401527405	fix_pre	0		120	60.0	2.5	/experiments/knapen_AOT/AOT_stimuli/rescaled_final/1938_rv.mp4	0.0	292.4643609523773	1.000148057937622
62	270.1819381713867	pulse	0	t		60.0	2.5	/experiments/knapen_AOT/AOT_stimuli/rescaled_final/1938_rv.mp4	0.0	293.45636510849	
62	270.19008207321167	movie	1		246	60.0	2.5	/experiments/knapen_AOT/AOT_stimuli/rescaled_final/1938_rv.mp4	0.0	293.46450901031494	2.5087409019470215
62	271.7831280231476	pulse	1	t		60.0	2.5	/experiments/knapen_AOT/AOT_stimuli/rescaled_final/1938_rv.mp4	0.0	295.05755496025085	
62	272.6988229751587	fix_post	2		12	60.0	2.5	/experiments/knapen_AOT/AOT_stimuli/rescaled_final/1938_rv.mp4	0.0	295.97324991226196	0.1000051498413086
63	272.798828125	fix_pre	0		120	61.0	2.5	/experiments/knapen_AOT/AOT_stimuli/rescaled_final/2038_fw.mp4	0.0	296.07325506210327	1.0001189708709717
63	273.3824291229248	pulse	0	t		61.0	2.5	/experiments/knapen_AOT/AOT_stimuli/rescaled_final/2038_fw.mp4	0.0	296.6568560600281	
63	273.798947095871	movie	1		249	61.0	2.5	/experiments/knapen_AOT/AOT_stimuli/rescaled_final/2038_fw.mp4	0.0	297.07337403297424	2.500393867492676
63	274.98278617858887	pulse	1	t		61.0	2.5	/experiments/knapen_AOT/AOT_stimuli/rescaled_final/2038_fw.mp4	0.0	298.25721311569214	
63	276.29934096336365	fix_post	2		12	61.0	2.5	/experiments/knapen_AOT/AOT_stimuli/rescaled_final/2038_fw.mp4	0.0	299.5737679004669	0.1000070571899414
64	276.3993480205536	fix_pre	0		120	62.0	2.5	blank	1.0	299.67377495765686	1.0001490116119385
64	276.5829961299896	pulse	0	t		62.0	2.5	blank	1.0	299.8574230670929	
64	277.3994970321655	movie	1		300	62.0	2.5	blank	1.0	300.6739239692688	2.5003929138183594
64	278.1831181049347	pulse	1	t		62.0	2.5	blank	1.0	301.45754504203796	
64	279.7833721637726	pulse	1	t		62.0	2.5	blank	1.0	303.05779910087585	
64	279.8998899459839	fix_post	2		12	62.0	2.5	blank	1.0	303.17431688308716	0.1000051498413086
65	279.9998950958252	fix_pre	0		120	63.0	2.5	/experiments/knapen_AOT/AOT_stimuli/rescaled_final/1972_fw.mp4	0.0	303.27432203292847	1.0001399517059326
65	281.0000350475311	movie	1		245	63.0	2.5	/experiments/knapen_AOT/AOT_stimuli/rescaled_final/1972_fw.mp4	0.0	304.2744619846344	2.4920570850372314
65	281.3840911388397	pulse	1	t		63.0	2.5	/experiments/knapen_AOT/AOT_stimuli/rescaled_final/1972_fw.mp4	0.0	304.658518075943	
65	282.9839551448822	pulse	1	t		63.0	2.5	/experiments/knapen_AOT/AOT_stimuli/rescaled_final/1972_fw.mp4	0.0	306.2583820819855	
65	283.49209213256836	fix_post	2		12	63.0	2.5	/experiments/knapen_AOT/AOT_stimuli/rescaled_final/1972_fw.mp4	0.0	306.76651906967163	0.09999704360961914
66	283.592089176178	fix_pre	0		120	64.0	2.5	/experiments/knapen_AOT/AOT_stimuli/rescaled_final/1134_fw.mp4	0.0	306.86651611328125	1.0001649856567383
66	284.58404207229614	pulse	0	t		64.0	2.5	/experiments/knapen_AOT/AOT_stimuli/rescaled_final/1134_fw.mp4	0.0	307.8584690093994	
66	284.5922541618347	movie	1		247	64.0	2.5	/experiments/knapen_AOT/AOT_stimuli/rescaled_final/1134_fw.mp4	0.0	307.866681098938	2.50870680809021
66	286.1849250793457	pulse	1	t		64.0	2.5	/experiments/knapen_AOT/AOT_stimuli/rescaled_final/1134_fw.mp4	0.0	309.459352016449	
66	287.1009609699249	fix_post	2		12	64.0	2.5	/experiments/knapen_AOT/AOT_stimuli/rescaled_final/1134_fw.mp4	0.0	310.3753879070282	0.10001015663146973
67	287.2009711265564	fix_pre	0		120	65.0	2.5	/experiments/knapen_AOT/AOT_stimuli/rescaled_final/0998_fw.mp4	0.0	310.47539806365967	1.0001070499420166
67	287.78456115722656	pulse	0	t		65.0	2.5	/experiments/knapen_AOT/AOT_stimuli/rescaled_final/0998_fw.mp4	0.0	311.05898809432983	
67	288.2010781764984	movie	1		245	65.0	2.5	/experiments/knapen_AOT/AOT_stimuli/rescaled_final/0998_fw.mp4	0.0	311.4755051136017	2.5004308223724365
67	289.37768507003784	pulse	1	t		65.0	2.5	/experiments/knapen_AOT/AOT_stimuli/rescaled_final/0998_fw.mp4	0.0	312.6521120071411	
67	290.70150899887085	fix_post	2		12	65.0	2.5	/experiments/knapen_AOT/AOT_stimuli/rescaled_final/0998_fw.mp4	0.0	313.9759359359741	0.09996509552001953
68	290.80147409439087	fix_pre	0		120	66.0	2.5	/experiments/knapen_AOT/AOT_stimuli/rescaled_final/1464_fw.mp4	0.0	314.07590103149414	1.000180959701538
68	290.9775791168213	pulse	0	t		66.0	2.5	/experiments/knapen_AOT/AOT_stimuli/rescaled_final/1464_fw.mp4	0.0	314.25200605392456	
68	291.8016550540924	movie	1		246	66.0	2.5	/experiments/knapen_AOT/AOT_stimuli/rescaled_final/1464_fw.mp4	0.0	315.0760819911957	2.5003530979156494
68	292.5778601169586	pulse	1	t		66.0	2.5	/experiments/knapen_AOT/AOT_stimuli/rescaled_final/1464_fw.mp4	0.0	315.8522870540619	
68	294.1779441833496	pulse	1	t		66.0	2.5	/experiments/knapen_AOT/AOT_stimuli/rescaled_final/1464_fw.mp4	0.0	317.4523711204529	
68	294.30200815200806	fix_post	2		12	66.0	2.5	/experiments/knapen_AOT/AOT_stimuli/rescaled_final/1464_fw.mp4	0.0	317.5764350891113	0.10002899169921875
69	294.4020371437073	fix_pre	0		119	67.0	2.5	/experiments/knapen_AOT/AOT_stimuli/rescaled_final/1001_rv.mp4	0.0	317.67646408081055	0.991818904876709
69	295.393856048584	movie	1		245	67.0	2.5	/experiments/knapen_AOT/AOT_stimuli/rescaled_final/1001_rv.mp4	0.0	318.66828298568726	2.5004239082336426
69	295.7791509628296	pulse	1	t		67.0	2.5	/experiments/knapen_AOT/AOT_stimuli/rescaled_final/1001_rv.mp4	0.0	319.05357789993286	
69	297.37761211395264	pulse	1	t		67.0	2.5	/experiments/knapen_AOT/AOT_stimuli/rescaled_final/1001_rv.mp4	0.0	320.6520390510559	
69	297.8942799568176	fix_post	2		12	67.0	2.5	/experiments/knapen_AOT/AOT_stimuli/rescaled_final/1001_rv.mp4	0.0	321.1687068939209	0.0999600887298584
70	297.9942400455475	fix_pre	0		119	68.0	2.5	blank	1.0	321.26866698265076	0.991811990737915
70	298.9779851436615	pulse	0	t		68.0	2.5	blank	1.0	322.25241208076477	
70	298.9860520362854	movie	1		301	68.0	2.5	blank	1.0	322.2604789733887	2.5087380409240723
70	300.578232049942	pulse	1	t		68.0	2.5	blank	1.0	323.8526589870453	
70	301.4947900772095	fix_post	2		12	68.0	2.5	blank	1.0	324.76921701431274	0.10001707077026367
71	301.59480714797974	fix_pre	0		120	69.0	2.5	/experiments/knapen_AOT/AOT_stimuli/rescaled_final/0392_rv.mp4	0.0	324.869234085083	1.0000967979431152
71	302.17848014831543	pulse	0	t		69.0	2.5	/experiments/knapen_AOT/AOT_stimuli/rescaled_final/0392_rv.mp4	0.0	325.4529070854187	
71	302.59490394592285	movie	1		244	69.0	2.5	/experiments/knapen_AOT/AOT_stimuli/rescaled_final/0392_rv.mp4	0.0	325.8693308830261	2.5004220008850098
71	303.7787501811981	pulse	1	t		69.0	2.5	/experiments/knapen_AOT/AOT_stimuli/rescaled_final/0392_rv.mp4	0.0	327.0531771183014	
71	305.09532594680786	fix_post	2		12	69.0	2.5	/experiments/knapen_AOT/AOT_stimuli/rescaled_final/0392_rv.mp4	0.0	328.36975288391113	0.1000361442565918
72	305.19536209106445	fix_pre	0		120	70.0	2.5	/experiments/knapen_AOT/AOT_stimuli/rescaled_final/0994_rv.mp4	0.0	328.4697890281677	1.000128984451294
72	305.378849029541	pulse	0	t		70.0	2.5	/experiments/knapen_AOT/AOT_stimuli/rescaled_final/0994_rv.mp4	0.0	328.6532759666443	
72	306.19549107551575	movie	1		244	70.0	2.5	/experiments/knapen_AOT/AOT_stimuli/rescaled_final/0994_rv.mp4	0.0	329.469918012619	2.500364065170288
72	306.9792079925537	pulse	1	t		70.0	2.5	/experiments/knapen_AOT/AOT_stimuli/rescaled_final/0994_rv.mp4	0.0	330.253634929657	
72	308.5794630050659	pulse	1	t		70.0	2.5	/experiments/knapen_AOT/AOT_stimuli/rescaled_final/0994_rv.mp4	0.0	331.8538899421692	
72	308.69585514068604	fix_post	2		12	70.0	2.5	/experiments/knapen_AOT/AOT_stimuli/rescaled_final/0994_rv.mp4	0.0	331.9702820777893	0.0999758243560791
73	308.7958309650421	fix_pre	0		120	71.0	2.5	/experiments/knapen_AOT/AOT_stimuli/rescaled_final/0009_rv.mp4	0.0	332.0702579021454	1.0001351833343506
73	309.79596614837646	movie	1		242	71.0	2.5	/experiments/knapen_AOT/AOT_stimuli/rescaled_final/0009_rv.mp4	0.0	333.07039308547974	2.4920380115509033
73	310.1802010536194	pulse	1	t		71.0	2.5	/experiments/knapen_AOT/AOT_stimuli/rescaled_final/0009_rv.mp4	0.0	333.45462799072266	
73	311.77984499931335	pulse	1	t		71.0	2.5	/experiments/knapen_AOT/AOT_stimuli/rescaled_final/0009_rv.mp4	0.0	335.0542719364166	
73	312.28800415992737	fix_post	2		12	71.0	2.5	/experiments/knapen_AOT/AOT_stimuli/rescaled_final/0009_rv.mp4	0.0	335.56243109703064	0.10003781318664551
74	312.388041973114	fix_pre	0		120	72.0	2.5	/experiments/knapen_AOT/AOT_stimuli/rescaled_final/1684_rv.mp4	0.0	335.6624689102173	1.0001890659332275
74	313.3801009654999	pulse	0	t		72.0	2.5	/experiments/knapen_AOT/AOT_stimuli/rescaled_final/1684_rv.mp4	0.0	336.65452790260315	
74	313.38823103904724	movie	1		246	72.0	2.5	/experiments/knapen_AOT/AOT_stimuli/rescaled_final/1684_rv.mp4	0.0	336.6626579761505	2.508723020553589
74	314.98106598854065	pulse	1	t		72.0	2.5	/experiments/knapen_AOT/AOT_stimuli/rescaled_final/1684_rv.mp4	0.0	338.2554929256439	
74	315.89695405960083	fix_post	2		12	72.0	2.5	/experiments/knapen_AOT/AOT_stimuli/rescaled_final/1684_rv.mp4	0.0	339.1713809967041	0.099945068359375
75	315.9968991279602	fix_pre	0		120	73.0	2.5	/experiments/knapen_AOT/AOT_stimuli/rescaled_final/0187_fw.mp4	0.0	339.2713260650635	1.0001869201660156
75	316.58058309555054	pulse	0	t		73.0	2.5	/experiments/knapen_AOT/AOT_stimuli/rescaled_final/0187_fw.mp4	0.0	339.8550100326538	
75	316.9970860481262	movie	1		246	73.0	2.5	/experiments/knapen_AOT/AOT_stimuli/rescaled_final/0187_fw.mp4	0.0	340.2715129852295	2.5004029273986816
75	318.18096113204956	pulse	1	t		73.0	2.5	/experiments/knapen_AOT/AOT_stimuli/rescaled_final/0187_fw.mp4	0.0	341.45538806915283	
75	319.4974889755249	fix_post	2		12	73.0	2.5	/experiments/knapen_AOT/AOT_stimuli/rescaled_final/0187_fw.mp4	0.0	342.7719159126282	0.09995603561401367
76	319.5974450111389	fix_pre	0		120	74.0	2.5	/experiments/knapen_AOT/AOT_stimuli/rescaled_final/0259_fw.mp4	0.0	342.8718719482422	1.0002410411834717
76	319.78107810020447	pulse	0	t		74.0	2.5	/experiments/knapen_AOT/AOT_stimuli/rescaled_final/0259_fw.mp4	0.0	343.05550503730774	
76	320.5976860523224	movie	1		244	74.0	2.5	/experiments/knapen_AOT/AOT_stimuli/rescaled_final/0259_fw.mp4	0.0	343.87211298942566	2.5002620220184326
76	321.3813519477844	pulse	1	t		74.0	2.5	/experiments/knapen_AOT/AOT_stimuli/rescaled_final/0259_fw.mp4	0.0	344.6557788848877	
76	322.98156213760376	pulse	1	t		74.0	2.5	/experiments/knapen_AOT/AOT_stimuli/rescaled_final/0259_fw.mp4	0.0	346.25598907470703	
76	323.0979480743408	fix_post	2		12	74.0	2.5	/experiments/knapen_AOT/AOT_stimuli/rescaled_final/0259_fw.mp4	0.0	346.3723750114441	0.10005593299865723
77	323.1980040073395	fix_pre	0		117	75.0	2.5	blank	1.0	346.47243094444275	1.0001120567321777
77	324.19811606407166	movie	1		299	75.0	2.5	blank	1.0	347.4725430011749	2.492093086242676
77	324.58179998397827	pulse	1	t		75.0	2.5	blank	1.0	347.85622692108154	
77	326.1819541454315	pulse	1	t		75.0	2.5	blank	1.0	349.4563810825348	
77	326.69020915031433	fix_post	2		12	75.0	2.5	blank	1.0	349.9646360874176	0.09997892379760742
78	326.79018807411194	fix_pre	0		120	76.0	2.5	/experiments/knapen_AOT/AOT_stimuli/rescaled_final/0096_rv.mp4	0.0	350.0646150112152	1.0001490116119385
78	327.78233218193054	pulse	0	t		76.0	2.5	/experiments/knapen_AOT/AOT_stimuli/rescaled_final/0096_rv.mp4	0.0	351.0567591190338	
78	327.7903370857239	movie	1		245	76.0	2.5	/experiments/knapen_AOT/AOT_stimuli/rescaled_final/0096_rv.mp4	0.0	351.06476402282715	2.5086920261383057
78	329.3830580711365	pulse	1	t		76.0	2.5	/experiments/knapen_AOT/AOT_stimuli/rescaled_final/0096_rv.mp4	0.0	352.65748500823975	
78	330.2990291118622	fix_post	2		12	76.0	2.5	/experiments/knapen_AOT/AOT_stimuli/rescaled_final/0096_rv.mp4	0.0	353.57345604896545	0.10002303123474121
79	330.3990521430969	fix_pre	0		120	77.0	2.5	/experiments/knapen_AOT/AOT_stimuli/rescaled_final/1077_fw.mp4	0.0	353.6734790802002	1.0002310276031494
79	330.9827971458435	pulse	0	t		77.0	2.5	/experiments/knapen_AOT/AOT_stimuli/rescaled_final/1077_fw.mp4	0.0	354.2572240829468	
79	331.3992831707001	movie	1		243	77.0	2.5	/experiments/knapen_AOT/AOT_stimuli/rescaled_final/1077_fw.mp4	0.0	354.67371010780334	2.5003550052642822
79	332.5830671787262	pulse	1	t		77.0	2.5	/experiments/knapen_AOT/AOT_stimuli/rescaled_final/1077_fw.mp4	0.0	355.85749411582947	
79	333.89963817596436	fix_post	2		12	77.0	2.5	/experiments/knapen_AOT/AOT_stimuli/rescaled_final/1077_fw.mp4	0.0	357.1740651130676	0.09999799728393555
80	333.9996361732483	fix_pre	0		120	78.0	2.5	/experiments/knapen_AOT/AOT_stimuli/rescaled_final/0718_rv.mp4	0.0	357.27406311035156	1.000121831893921
80	334.18322014808655	pulse	0	t		78.0	2.5	/experiments/knapen_AOT/AOT_stimuli/rescaled_final/0718_rv.mp4	0.0	357.4576470851898	
80	334.9997580051422	movie	1		244	78.0	2.5	/experiments/knapen_AOT/AOT_stimuli/rescaled_final/0718_rv.mp4	0.0	358.2741849422455	2.500441074371338
80	335.7834711074829	pulse	1	t		78.0	2.5	/experiments/knapen_AOT/AOT_stimuli/rescaled_final/0718_rv.mp4	0.0	359.0578980445862	
80	337.38575410842896	pulse	1	t		78.0	2.5	/experiments/knapen_AOT/AOT_stimuli/rescaled_final/0718_rv.mp4	0.0	360.6601810455322	
80	337.50019907951355	fix_post	2		12	78.0	2.5	/experiments/knapen_AOT/AOT_stimuli/rescaled_final/0718_rv.mp4	0.0	360.7746260166168	0.0999140739440918
81	337.60011315345764	fix_pre	0		120	79.0	2.5	/experiments/knapen_AOT/AOT_stimuli/rescaled_final/0475_fw.mp4	0.0	360.8745400905609	1.0001819133758545
81	338.6002950668335	movie	1		243	79.0	2.5	/experiments/knapen_AOT/AOT_stimuli/rescaled_final/0475_fw.mp4	0.0	361.87472200393677	2.492029905319214
81	338.9845480918884	pulse	1	t		79.0	2.5	/experiments/knapen_AOT/AOT_stimuli/rescaled_final/0475_fw.mp4	0.0	362.2589750289917	
81	340.5768439769745	pulse	1	t		79.0	2.5	/experiments/knapen_AOT/AOT_stimuli/rescaled_final/0475_fw.mp4	0.0	363.85127091407776	
81	341.0923249721527	fix_post	2		12	79.0	2.5	/experiments/knapen_AOT/AOT_stimuli/rescaled_final/0475_fw.mp4	0.0	364.366751909256	0.10003018379211426
82	341.1923551559448	fix_pre	0		120	80.0	2.5	/experiments/knapen_AOT/AOT_stimuli/rescaled_final/1070_rv.mp4	0.0	364.4667820930481	1.0001699924468994
82	342.1767771244049	pulse	0	t		80.0	2.5	/experiments/knapen_AOT/AOT_stimuli/rescaled_final/1070_rv.mp4	0.0	365.4512040615082	
82	342.1925251483917	movie	1		244	80.0	2.5	/experiments/knapen_AOT/AOT_stimuli/rescaled_final/1070_rv.mp4	0.0	365.466952085495	2.5087080001831055
82	343.78589510917664	pulse	1	t		80.0	2.5	/experiments/knapen_AOT/AOT_stimuli/rescaled_final/1070_rv.mp4	0.0	367.0603220462799	
82	344.70123314857483	fix_post	2		12	80.0	2.5	/experiments/knapen_AOT/AOT_stimuli/rescaled_final/1070_rv.mp4	0.0	367.9756600856781	0.10003399848937988
83	344.8012671470642	fix_pre	0		120	81.0	2.5	/experiments/knapen_AOT/AOT_stimuli/rescaled_final/1438_fw.mp4	0.0	368.0756940841675	1.0001418590545654
83	345.37744903564453	pulse	0	t		81.0	2.5	/experiments/knapen_AOT/AOT_stimuli/rescaled_final/1438_fw.mp4	0.0	368.6518759727478	
83	345.8014090061188	movie	1		245	81.0	2.5	/experiments/knapen_AOT/AOT_stimuli/rescaled_final/1438_fw.mp4	0.0	369.07583594322205	2.5003700256347656
83	346.9773950576782	pulse	1	t		81.0	2.5	/experiments/knapen_AOT/AOT_stimuli/rescaled_final/1438_fw.mp4	0.0	370.2518219947815	
83	348.30177903175354	fix_post	2		12	81.0	2.5	/experiments/knapen_AOT/AOT_stimuli/rescaled_final/1438_fw.mp4	0.0	371.5762059688568	0.09999299049377441
84	348.4017720222473	fix_pre	0		120	82.0	2.5	/experiments/knapen_AOT/AOT_stimuli/rescaled_final/1080_rv.mp4	0.0	371.6761989593506	1.0001530647277832
84	348.57706117630005	pulse	0	t		82.0	2.5	/experiments/knapen_AOT/AOT_stimuli/rescaled_final/1080_rv.mp4	0.0	371.8514881134033	
84	349.4019250869751	movie	1		246	82.0	2.5	/experiments/knapen_AOT/AOT_stimuli/rescaled_final/1080_rv.mp4	0.0	372.67635202407837	2.500372886657715
84	350.1771800518036	pulse	1	t		82.0	2.5	/experiments/knapen_AOT/AOT_stimuli/rescaled_final/1080_rv.mp4	0.0	373.45160698890686	
84	351.77764797210693	pulse	1	t		82.0	2.5	/experiments/knapen_AOT/AOT_stimuli/rescaled_final/1080_rv.mp4	0.0	375.0520749092102	
84	351.9022979736328	fix_post	2		12	82.0	2.5	/experiments/knapen_AOT/AOT_stimuli/rescaled_final/1080_rv.mp4	0.0	375.1767249107361	0.10005998611450195
85	352.0023579597473	fix_pre	0		119	83.0	2.5	blank	1.0	375.2767848968506	0.99173903465271
85	352.9940969944	movie	1		300	83.0	2.5	blank	1.0	376.2685239315033	2.5004210472106934
85	353.37781500816345	pulse	1	t		83.0	2.5	blank	1.0	376.6522419452667	
85	354.9780080318451	pulse	1	t		83.0	2.5	blank	1.0	378.25243496894836	
85	355.4945180416107	fix_post	2		12	83.0	2.5	blank	1.0	378.768944978714	0.09998512268066406
87	355.5945031642914	stim	0		1716					378.86893010139465	14.302284955978394
87	356.57811999320984	pulse	0	t						379.8525469303131	
87	358.17838501930237	pulse	0	t						381.45281195640564	
87	359.77863597869873	pulse	0	t						383.053062915802	
87	361.37893414497375	pulse	0	t						384.653361082077	
87	362.97910594940186	pulse	0	t						386.2535328865051	
87	364.57933807373047	pulse	0	t						387.85376501083374	
87	366.17955207824707	pulse	0	t						389.45397901535034	
87	367.7798810005188	pulse	0	t						391.05430793762207	
87	369.3800621032715	pulse	0	t						392.65448904037476	
