trial_nr	onset	event_type	phase	response	nr_frames	movie_index	movie_duration	movie_file	blank	onset_abs	duration
0	0.14152908325195312	stim	0		142					94.02906799316406	1.1833078861236572
0	1.316910982131958	response	0	space						95.20444989204407	
1	1.3248369693756104	stim	0		5359					95.21237587928772	44.65822696685791
1	45.979028940200806	pulse	0	t						139.86656785011292	
1	45.98306393623352	stim	1		1717					139.87060284614563	14.30828595161438
1	47.57480788230896	pulse	1	t						141.46234679222107	
1	49.17477989196777	pulse	1	t						143.06231880187988	
1	50.7747368812561	pulse	1	t						144.6622757911682	
1	52.374788999557495	pulse	1	t						146.2623279094696	
1	53.97492599487305	pulse	1	t						147.86246490478516	
1	55.57484292984009	pulse	1	t						149.4623818397522	
1	57.17476296424866	pulse	1	t						151.06230187416077	
1	58.77483797073364	pulse	1	t						152.66237688064575	
2	60.2913498878479	fix_pre	0		11	0.0	2.5	/experiments/AOT/AOT_stimuli/rescaled_final/0314_fw.mp4	0.0	154.17888879776	0.09161710739135742
2	60.374839067459106	pulse	0	t		0.0	2.5	/experiments/AOT/AOT_stimuli/rescaled_final/0314_fw.mp4	0.0	154.26237797737122	
2	60.38296699523926	movie	1		244	0.0	2.5	/experiments/AOT/AOT_stimuli/rescaled_final/0314_fw.mp4	0.0	154.27050590515137	2.5084080696105957
2	61.974501848220825	pulse	1	t		0.0	2.5	/experiments/AOT/AOT_stimuli/rescaled_final/0314_fw.mp4	0.0	155.86204075813293	
2	62.89137506484985	fix_post	2		12	0.0	2.5	/experiments/AOT/AOT_stimuli/rescaled_final/0314_fw.mp4	0.0	156.77891397476196	0.09999799728393555
3	62.99137306213379	fix_pre	0		120	1.0	2.5	/experiments/AOT/AOT_stimuli/rescaled_final/0311_fw.mp4	0.0	156.8789119720459	1.0000498294830322
3	63.574790954589844	pulse	0	t		1.0	2.5	/experiments/AOT/AOT_stimuli/rescaled_final/0311_fw.mp4	0.0	157.46232986450195	
3	63.99142289161682	movie	1		244	1.0	2.5	/experiments/AOT/AOT_stimuli/rescaled_final/0311_fw.mp4	0.0	157.87896180152893	2.500096082687378
3	65.1748399734497	pulse	1	t		1.0	2.5	/experiments/AOT/AOT_stimuli/rescaled_final/0311_fw.mp4	0.0	159.06237888336182	
3	66.4915189743042	fix_post	2		12	1.0	2.5	/experiments/AOT/AOT_stimuli/rescaled_final/0311_fw.mp4	0.0	160.3790578842163	0.09959101676940918
4	66.59110999107361	fix_pre	0		120	2.0	2.5	/experiments/AOT/AOT_stimuli/rescaled_final/1426_rv.mp4	0.0	160.47864890098572	1.000195026397705
4	66.77507996559143	pulse	0	t		2.0	2.5	/experiments/AOT/AOT_stimuli/rescaled_final/1426_rv.mp4	0.0	160.66261887550354	
4	67.59130501747131	movie	1		247	2.0	2.5	/experiments/AOT/AOT_stimuli/rescaled_final/1426_rv.mp4	0.0	161.47884392738342	2.499969959259033
4	68.37464690208435	pulse	1	t		2.0	2.5	/experiments/AOT/AOT_stimuli/rescaled_final/1426_rv.mp4	0.0	162.26218581199646	
4	69.97475004196167	pulse	1	t		2.0	2.5	/experiments/AOT/AOT_stimuli/rescaled_final/1426_rv.mp4	0.0	163.86228895187378	
4	70.09127497673035	fix_post	2		12	2.0	2.5	/experiments/AOT/AOT_stimuli/rescaled_final/1426_rv.mp4	0.0	163.97881388664246	0.10004591941833496
5	70.19132089614868	fix_pre	0		120	3.0	2.5	/experiments/AOT/AOT_stimuli/rescaled_final/1164_fw.mp4	0.0	164.0788598060608	0.9999310970306396
5	71.19125199317932	movie	1		243	3.0	2.5	/experiments/AOT/AOT_stimuli/rescaled_final/1164_fw.mp4	0.0	165.07879090309143	2.499911069869995
5	71.57470297813416	pulse	1	t		3.0	2.5	/experiments/AOT/AOT_stimuli/rescaled_final/1164_fw.mp4	0.0	165.46224188804626	
5	73.17466807365417	pulse	1	t		3.0	2.5	/experiments/AOT/AOT_stimuli/rescaled_final/1164_fw.mp4	0.0	167.06220698356628	
5	73.69116306304932	fix_post	2		12	3.0	2.5	/experiments/AOT/AOT_stimuli/rescaled_final/1164_fw.mp4	0.0	167.57870197296143	0.10006284713745117
6	73.79122591018677	fix_pre	0		119	4.0	2.5	/experiments/AOT/AOT_stimuli/rescaled_final/0357_fw.mp4	0.0	167.67876482009888	0.991732120513916
6	74.77470993995667	pulse	0	t		4.0	2.5	/experiments/AOT/AOT_stimuli/rescaled_final/0357_fw.mp4	0.0	168.66224884986877	
6	74.78295803070068	movie	1		245	4.0	2.5	/experiments/AOT/AOT_stimuli/rescaled_final/0357_fw.mp4	0.0	168.6704969406128	2.5078048706054688
6	76.37448596954346	pulse	1	t		4.0	2.5	/experiments/AOT/AOT_stimuli/rescaled_final/0357_fw.mp4	0.0	170.26202487945557	
6	77.29076290130615	fix_post	2		12	4.0	2.5	/experiments/AOT/AOT_stimuli/rescaled_final/0357_fw.mp4	0.0	171.17830181121826	0.10042214393615723
7	77.39118504524231	fix_pre	0		120	5.0	2.5	/experiments/AOT/AOT_stimuli/rescaled_final/1750_rv.mp4	0.0	171.27872395515442	0.9999959468841553
7	77.97462105751038	pulse	0	t		5.0	2.5	/experiments/AOT/AOT_stimuli/rescaled_final/1750_rv.mp4	0.0	171.86215996742249	
7	78.39118099212646	movie	1		245	5.0	2.5	/experiments/AOT/AOT_stimuli/rescaled_final/1750_rv.mp4	0.0	172.27871990203857	2.5000340938568115
7	79.57479286193848	pulse	1	t		5.0	2.5	/experiments/AOT/AOT_stimuli/rescaled_final/1750_rv.mp4	0.0	173.4623317718506	
7	80.89121508598328	fix_post	2		12	5.0	2.5	/experiments/AOT/AOT_stimuli/rescaled_final/1750_rv.mp4	0.0	174.77875399589539	0.10004091262817383
8	80.99125599861145	fix_pre	0		120	6.0	2.5	blank	1.0	174.87879490852356	0.9999179840087891
8	81.174733877182	pulse	0	t		6.0	2.5	blank	1.0	175.06227278709412	
8	81.99117398262024	movie	1		300	6.0	2.5	blank	1.0	175.87871289253235	2.5000438690185547
8	82.77472305297852	pulse	1	t		6.0	2.5	blank	1.0	176.66226196289062	
8	84.37466597557068	pulse	1	t		6.0	2.5	blank	1.0	178.2622048854828	
8	84.4912178516388	fix_post	2		12	6.0	2.5	blank	1.0	178.3787567615509	0.09992504119873047
9	84.59114289283752	fix_pre	0		120	7.0	2.5	/experiments/AOT/AOT_stimuli/rescaled_final/0622_rv.mp4	0.0	178.47868180274963	1.0000181198120117
9	85.59116101264954	movie	1		243	7.0	2.5	/experiments/AOT/AOT_stimuli/rescaled_final/0622_rv.mp4	0.0	179.47869992256165	2.5000360012054443
9	85.97414708137512	pulse	1	t		7.0	2.5	/experiments/AOT/AOT_stimuli/rescaled_final/0622_rv.mp4	0.0	179.86168599128723	
9	87.57468390464783	pulse	1	t		7.0	2.5	/experiments/AOT/AOT_stimuli/rescaled_final/0622_rv.mp4	0.0	181.46222281455994	
9	88.09119701385498	fix_post	2		12	7.0	2.5	/experiments/AOT/AOT_stimuli/rescaled_final/0622_rv.mp4	0.0	181.9787359237671	0.09993100166320801
10	88.19112801551819	fix_pre	0		119	8.0	2.5	/experiments/AOT/AOT_stimuli/rescaled_final/1844_fw.mp4	0.0	182.0786669254303	0.9916000366210938
10	89.17464303970337	pulse	0	t		8.0	2.5	/experiments/AOT/AOT_stimuli/rescaled_final/1844_fw.mp4	0.0	183.06218194961548	
10	89.18272805213928	movie	1		247	8.0	2.5	/experiments/AOT/AOT_stimuli/rescaled_final/1844_fw.mp4	0.0	183.0702669620514	2.5084288120269775
10	90.77438807487488	pulse	1	t		8.0	2.5	/experiments/AOT/AOT_stimuli/rescaled_final/1844_fw.mp4	0.0	184.661926984787	
10	91.69115686416626	fix_post	2		12	8.0	2.5	/experiments/AOT/AOT_stimuli/rescaled_final/1844_fw.mp4	0.0	185.57869577407837	0.09998416900634766
11	91.79114103317261	fix_pre	0		120	9.0	2.5	/experiments/AOT/AOT_stimuli/rescaled_final/0364_fw.mp4	0.0	185.67867994308472	0.9999690055847168
11	92.3758590221405	pulse	0	t		9.0	2.5	/experiments/AOT/AOT_stimuli/rescaled_final/0364_fw.mp4	0.0	186.2633979320526	
11	92.79111003875732	movie	1		245	9.0	2.5	/experiments/AOT/AOT_stimuli/rescaled_final/0364_fw.mp4	0.0	186.67864894866943	2.500077962875366
11	93.97465991973877	pulse	1	t		9.0	2.5	/experiments/AOT/AOT_stimuli/rescaled_final/0364_fw.mp4	0.0	187.86219882965088	
11	95.29118800163269	fix_post	2		12	9.0	2.5	/experiments/AOT/AOT_stimuli/rescaled_final/0364_fw.mp4	0.0	189.1787269115448	0.09997797012329102
12	95.39116597175598	fix_pre	0		120	10.0	2.5	/experiments/AOT/AOT_stimuli/rescaled_final/2069_rv.mp4	0.0	189.2787048816681	0.9999110698699951
12	95.57458090782166	pulse	0	t		10.0	2.5	/experiments/AOT/AOT_stimuli/rescaled_final/2069_rv.mp4	0.0	189.46211981773376	
12	96.39107704162598	movie	1		244	10.0	2.5	/experiments/AOT/AOT_stimuli/rescaled_final/2069_rv.mp4	0.0	190.2786159515381	2.499558925628662
12	97.17463207244873	pulse	1	t		10.0	2.5	/experiments/AOT/AOT_stimuli/rescaled_final/2069_rv.mp4	0.0	191.06217098236084	
12	98.77313899993896	pulse	1	t		10.0	2.5	/experiments/AOT/AOT_stimuli/rescaled_final/2069_rv.mp4	0.0	192.66067790985107	
12	98.89063596725464	fix_post	2		12	10.0	2.5	/experiments/AOT/AOT_stimuli/rescaled_final/2069_rv.mp4	0.0	192.77817487716675	0.10048103332519531
13	98.99111700057983	fix_pre	0		120	11.0	2.5	/experiments/AOT/AOT_stimuli/rescaled_final/0023_fw.mp4	0.0	192.87865591049194	0.9999449253082275
13	99.99106192588806	movie	1		246	11.0	2.5	/experiments/AOT/AOT_stimuli/rescaled_final/0023_fw.mp4	0.0	193.87860083580017	2.5001211166381836
13	100.37563896179199	pulse	1	t		11.0	2.5	/experiments/AOT/AOT_stimuli/rescaled_final/0023_fw.mp4	0.0	194.2631778717041	
13	101.9745728969574	pulse	1	t		11.0	2.5	/experiments/AOT/AOT_stimuli/rescaled_final/0023_fw.mp4	0.0	195.8621118068695	
13	102.49118304252625	fix_post	2		12	11.0	2.5	/experiments/AOT/AOT_stimuli/rescaled_final/0023_fw.mp4	0.0	196.37872195243835	0.10001587867736816
14	102.59119892120361	fix_pre	0		119	12.0	2.5	/experiments/AOT/AOT_stimuli/rescaled_final/0674_rv.mp4	0.0	196.47873783111572	0.9916350841522217
14	103.57463693618774	pulse	0	t		12.0	2.5	/experiments/AOT/AOT_stimuli/rescaled_final/0674_rv.mp4	0.0	197.46217584609985	
14	103.58283400535583	movie	1		246	12.0	2.5	/experiments/AOT/AOT_stimuli/rescaled_final/0674_rv.mp4	0.0	197.47037291526794	2.508183002471924
14	105.17411208152771	pulse	1	t		12.0	2.5	/experiments/AOT/AOT_stimuli/rescaled_final/0674_rv.mp4	0.0	199.06165099143982	
14	106.09101700782776	fix_post	2		12	12.0	2.5	/experiments/AOT/AOT_stimuli/rescaled_final/0674_rv.mp4	0.0	199.97855591773987	0.1000518798828125
15	106.19106888771057	fix_pre	0		120	13.0	2.5	/experiments/AOT/AOT_stimuli/rescaled_final/0311_rv.mp4	0.0	200.07860779762268	0.9999790191650391
15	106.77462887763977	pulse	0	t		13.0	2.5	/experiments/AOT/AOT_stimuli/rescaled_final/0311_rv.mp4	0.0	200.66216778755188	
15	107.19104790687561	movie	1		244	13.0	2.5	/experiments/AOT/AOT_stimuli/rescaled_final/0311_rv.mp4	0.0	201.07858681678772	2.4999380111694336
15	108.37468194961548	pulse	1	t		13.0	2.5	/experiments/AOT/AOT_stimuli/rescaled_final/0311_rv.mp4	0.0	202.2622208595276	
15	109.69098591804504	fix_post	2		12	13.0	2.5	/experiments/AOT/AOT_stimuli/rescaled_final/0311_rv.mp4	0.0	203.57852482795715	0.10006594657897949
16	109.79105186462402	fix_pre	0		120	14.0	2.5	blank	1.0	203.67859077453613	0.9999330043792725
16	109.97464799880981	pulse	0	t		14.0	2.5	blank	1.0	203.86218690872192	
16	110.7909848690033	movie	1		300	14.0	2.5	blank	1.0	204.6785237789154	2.5000321865081787
16	111.5747299194336	pulse	1	t		14.0	2.5	blank	1.0	205.4622688293457	
16	113.17455196380615	pulse	1	t		14.0	2.5	blank	1.0	207.06209087371826	
16	113.29101705551147	fix_post	2		12	14.0	2.5	blank	1.0	207.17855596542358	0.0999598503112793
17	113.39097690582275	fix_pre	0		120	15.0	2.5	/experiments/AOT/AOT_stimuli/rescaled_final/0144_fw.mp4	0.0	207.27851581573486	1.0001251697540283
17	114.39110207557678	movie	1		244	15.0	2.5	/experiments/AOT/AOT_stimuli/rescaled_final/0144_fw.mp4	0.0	208.2786409854889	2.499915838241577
17	114.77390599250793	pulse	1	t		15.0	2.5	/experiments/AOT/AOT_stimuli/rescaled_final/0144_fw.mp4	0.0	208.66144490242004	
17	116.37439608573914	pulse	1	t		15.0	2.5	/experiments/AOT/AOT_stimuli/rescaled_final/0144_fw.mp4	0.0	210.26193499565125	
17	116.89101791381836	fix_post	2		12	15.0	2.5	/experiments/AOT/AOT_stimuli/rescaled_final/0144_fw.mp4	0.0	210.77855682373047	0.10002017021179199
18	116.99103808403015	fix_pre	0		119	16.0	2.5	/experiments/AOT/AOT_stimuli/rescaled_final/0099_fw.mp4	0.0	210.87857699394226	0.9917237758636475
18	117.97462606430054	pulse	0	t		16.0	2.5	/experiments/AOT/AOT_stimuli/rescaled_final/0099_fw.mp4	0.0	211.86216497421265	
18	117.9827618598938	movie	1		246	16.0	2.5	/experiments/AOT/AOT_stimuli/rescaled_final/0099_fw.mp4	0.0	211.8703007698059	2.5078630447387695
18	119.57413387298584	pulse	1	t		16.0	2.5	/experiments/AOT/AOT_stimuli/rescaled_final/0099_fw.mp4	0.0	213.46167278289795	
18	120.49062490463257	fix_post	2		12	16.0	2.5	/experiments/AOT/AOT_stimuli/rescaled_final/0099_fw.mp4	0.0	214.37816381454468	0.10004496574401855
19	120.59066987037659	fix_pre	0		120	17.0	2.5	/experiments/AOT/AOT_stimuli/rescaled_final/1426_fw.mp4	0.0	214.4782087802887	1.000533103942871
19	121.1741349697113	pulse	0	t		17.0	2.5	/experiments/AOT/AOT_stimuli/rescaled_final/1426_fw.mp4	0.0	215.0616738796234	
19	121.59120297431946	movie	1		248	17.0	2.5	/experiments/AOT/AOT_stimuli/rescaled_final/1426_fw.mp4	0.0	215.47874188423157	2.499814987182617
19	122.77445006370544	pulse	1	t		17.0	2.5	/experiments/AOT/AOT_stimuli/rescaled_final/1426_fw.mp4	0.0	216.66198897361755	
19	124.09101796150208	fix_post	2		12	17.0	2.5	/experiments/AOT/AOT_stimuli/rescaled_final/1426_fw.mp4	0.0	217.97855687141418	0.10004997253417969
20	124.19106793403625	fix_pre	0		120	18.0	2.5	/experiments/AOT/AOT_stimuli/rescaled_final/2091_fw.mp4	0.0	218.07860684394836	0.99993896484375
20	124.37457799911499	pulse	0	t		18.0	2.5	/experiments/AOT/AOT_stimuli/rescaled_final/2091_fw.mp4	0.0	218.2621169090271	
20	125.19100689888	movie	1		244	18.0	2.5	/experiments/AOT/AOT_stimuli/rescaled_final/2091_fw.mp4	0.0	219.07854580879211	2.4995930194854736
20	125.97451090812683	pulse	1	t		18.0	2.5	/experiments/AOT/AOT_stimuli/rescaled_final/2091_fw.mp4	0.0	219.86204981803894	
20	127.57298493385315	pulse	1	t		18.0	2.5	/experiments/AOT/AOT_stimuli/rescaled_final/2091_fw.mp4	0.0	221.46052384376526	
20	127.69059991836548	fix_post	2		12	18.0	2.5	/experiments/AOT/AOT_stimuli/rescaled_final/2091_fw.mp4	0.0	221.5781388282776	0.10037398338317871
21	127.79097390174866	fix_pre	0		120	19.0	2.5	blank	1.0	221.67851281166077	0.9999821186065674
21	128.79095602035522	movie	1		300	19.0	2.5	blank	1.0	222.67849493026733	2.5001330375671387
21	129.17444705963135	pulse	1	t		19.0	2.5	blank	1.0	223.06198596954346	
21	130.77440190315247	pulse	1	t		19.0	2.5	blank	1.0	224.66194081306458	
21	131.29108905792236	fix_post	2		12	19.0	2.5	blank	1.0	225.17862796783447	0.09979391098022461
22	131.3908829689026	fix_pre	0		119	20.0	2.5	/experiments/AOT/AOT_stimuli/rescaled_final/1382_rv.mp4	0.0	225.2784218788147	0.9916980266571045
22	132.37442088127136	pulse	0	t		20.0	2.5	/experiments/AOT/AOT_stimuli/rescaled_final/1382_rv.mp4	0.0	226.26195979118347	
22	132.3825809955597	movie	1		245	20.0	2.5	/experiments/AOT/AOT_stimuli/rescaled_final/1382_rv.mp4	0.0	226.2701199054718	2.508302927017212
22	133.97404193878174	pulse	1	t		20.0	2.5	/experiments/AOT/AOT_stimuli/rescaled_final/1382_rv.mp4	0.0	227.86158084869385	
22	134.8908839225769	fix_post	2		12	20.0	2.5	/experiments/AOT/AOT_stimuli/rescaled_final/1382_rv.mp4	0.0	228.778422832489	0.10001397132873535
23	134.99089789390564	fix_pre	0		120	21.0	2.5	/experiments/AOT/AOT_stimuli/rescaled_final/1026_fw.mp4	0.0	228.87843680381775	1.0000109672546387
23	135.57439303398132	pulse	0	t		21.0	2.5	/experiments/AOT/AOT_stimuli/rescaled_final/1026_fw.mp4	0.0	229.46193194389343	
23	135.99090886116028	movie	1		243	21.0	2.5	/experiments/AOT/AOT_stimuli/rescaled_final/1026_fw.mp4	0.0	229.8784477710724	2.4995670318603516
23	137.1744818687439	pulse	1	t		21.0	2.5	/experiments/AOT/AOT_stimuli/rescaled_final/1026_fw.mp4	0.0	231.062020778656	
23	138.49047589302063	fix_post	2		12	21.0	2.5	/experiments/AOT/AOT_stimuli/rescaled_final/1026_fw.mp4	0.0	232.37801480293274	0.10000205039978027
24	138.5904779434204	fix_pre	0		120	22.0	2.5	/experiments/AOT/AOT_stimuli/rescaled_final/0324_rv.mp4	0.0	232.47801685333252	1.0004079341888428
24	138.77439498901367	pulse	0	t		22.0	2.5	/experiments/AOT/AOT_stimuli/rescaled_final/0324_rv.mp4	0.0	232.66193389892578	
24	139.59088587760925	movie	1		243	22.0	2.5	/experiments/AOT/AOT_stimuli/rescaled_final/0324_rv.mp4	0.0	233.47842478752136	2.5
24	140.3744170665741	pulse	1	t		22.0	2.5	/experiments/AOT/AOT_stimuli/rescaled_final/0324_rv.mp4	0.0	234.2619559764862	
24	141.9726278781891	pulse	1	t		22.0	2.5	/experiments/AOT/AOT_stimuli/rescaled_final/0324_rv.mp4	0.0	235.8601667881012	
24	142.09088587760925	fix_post	2		12	22.0	2.5	/experiments/AOT/AOT_stimuli/rescaled_final/0324_rv.mp4	0.0	235.97842478752136	0.09992098808288574
25	142.19080686569214	fix_pre	0		120	23.0	2.5	/experiments/AOT/AOT_stimuli/rescaled_final/0673_fw.mp4	0.0	236.07834577560425	1.0001461505889893
25	143.19095301628113	movie	1		245	23.0	2.5	/experiments/AOT/AOT_stimuli/rescaled_final/0673_fw.mp4	0.0	237.07849192619324	2.499953031539917
25	143.57381391525269	pulse	1	t		23.0	2.5	/experiments/AOT/AOT_stimuli/rescaled_final/0673_fw.mp4	0.0	237.4613528251648	
25	145.17438387870789	pulse	1	t		23.0	2.5	/experiments/AOT/AOT_stimuli/rescaled_final/0673_fw.mp4	0.0	239.06192278862	
25	145.69090604782104	fix_post	2		12	23.0	2.5	/experiments/AOT/AOT_stimuli/rescaled_final/0673_fw.mp4	0.0	239.57844495773315	0.10002398490905762
26	145.7909300327301	fix_pre	0		119	24.0	2.5	/experiments/AOT/AOT_stimuli/rescaled_final/1153_rv.mp4	0.0	239.6784689426422	0.991569995880127
26	146.77435994148254	pulse	0	t		24.0	2.5	/experiments/AOT/AOT_stimuli/rescaled_final/1153_rv.mp4	0.0	240.66189885139465	
26	146.78250002861023	movie	1		247	24.0	2.5	/experiments/AOT/AOT_stimuli/rescaled_final/1153_rv.mp4	0.0	240.67003893852234	2.50838303565979
26	148.374263048172	pulse	1	t		24.0	2.5	/experiments/AOT/AOT_stimuli/rescaled_final/1153_rv.mp4	0.0	242.2618019580841	
26	149.29088306427002	fix_post	2		12	24.0	2.5	/experiments/AOT/AOT_stimuli/rescaled_final/1153_rv.mp4	0.0	243.17842197418213	0.1000359058380127
27	149.39091897010803	fix_pre	0		120	25.0	2.5	/experiments/AOT/AOT_stimuli/rescaled_final/2033_fw.mp4	0.0	243.27845788002014	0.9998729228973389
27	149.97439193725586	pulse	0	t		25.0	2.5	/experiments/AOT/AOT_stimuli/rescaled_final/2033_fw.mp4	0.0	243.86193084716797	
27	150.39079189300537	movie	1		246	25.0	2.5	/experiments/AOT/AOT_stimuli/rescaled_final/2033_fw.mp4	0.0	244.27833080291748	2.500041961669922
27	151.5744709968567	pulse	1	t		25.0	2.5	/experiments/AOT/AOT_stimuli/rescaled_final/2033_fw.mp4	0.0	245.4620099067688	
27	152.8908338546753	fix_post	2		12	25.0	2.5	/experiments/AOT/AOT_stimuli/rescaled_final/2033_fw.mp4	0.0	246.7783727645874	0.10001611709594727
28	152.99084997177124	fix_pre	0		120	26.0	2.5	/experiments/AOT/AOT_stimuli/rescaled_final/0324_fw.mp4	0.0	246.87838888168335	1.0000131130218506
28	153.17433404922485	pulse	0	t		26.0	2.5	/experiments/AOT/AOT_stimuli/rescaled_final/0324_fw.mp4	0.0	247.06187295913696	
28	153.9908630847931	movie	1		243	26.0	2.5	/experiments/AOT/AOT_stimuli/rescaled_final/0324_fw.mp4	0.0	247.8784019947052	2.499959945678711
28	154.77433490753174	pulse	1	t		26.0	2.5	/experiments/AOT/AOT_stimuli/rescaled_final/0324_fw.mp4	0.0	248.66187381744385	
28	156.37344408035278	pulse	1	t		26.0	2.5	/experiments/AOT/AOT_stimuli/rescaled_final/0324_fw.mp4	0.0	250.2609829902649	
28	156.4908230304718	fix_post	2		12	26.0	2.5	/experiments/AOT/AOT_stimuli/rescaled_final/0324_fw.mp4	0.0	250.3783619403839	0.10010695457458496
29	156.5909299850464	fix_pre	0		120	27.0	2.5	blank	1.0	250.4784688949585	0.9999358654022217
29	157.5908658504486	movie	1		300	27.0	2.5	blank	1.0	251.47840476036072	2.500030040740967
29	157.97431898117065	pulse	1	t		27.0	2.5	blank	1.0	251.86185789108276	
29	159.57432389259338	pulse	1	t		27.0	2.5	blank	1.0	253.4618628025055	
29	160.09089589118958	fix_post	2		12	27.0	2.5	blank	1.0	253.97843480110168	0.10003018379211426
30	160.1909260749817	fix_pre	0		119	28.0	2.5	/experiments/AOT/AOT_stimuli/rescaled_final/0974_fw.mp4	0.0	254.0784649848938	0.9915599822998047
30	161.17429995536804	pulse	0	t		28.0	2.5	/experiments/AOT/AOT_stimuli/rescaled_final/0974_fw.mp4	0.0	255.06183886528015	
30	161.1824860572815	movie	1		244	28.0	2.5	/experiments/AOT/AOT_stimuli/rescaled_final/0974_fw.mp4	0.0	255.0700249671936	2.508253812789917
30	162.77415990829468	pulse	1	t		28.0	2.5	/experiments/AOT/AOT_stimuli/rescaled_final/0974_fw.mp4	0.0	256.6616988182068	
30	163.6907398700714	fix_post	2		12	28.0	2.5	/experiments/AOT/AOT_stimuli/rescaled_final/0974_fw.mp4	0.0	257.5782787799835	0.10007214546203613
31	163.79081201553345	fix_pre	0		120	29.0	2.5	/experiments/AOT/AOT_stimuli/rescaled_final/0357_fw.mp4	0.0	257.67835092544556	0.9996249675750732
31	164.3743190765381	pulse	0	t		29.0	2.5	/experiments/AOT/AOT_stimuli/rescaled_final/0357_fw.mp4	0.0	258.2618579864502	
31	164.79043698310852	movie	1		244	29.0	2.5	/experiments/AOT/AOT_stimuli/rescaled_final/0357_fw.mp4	0.0	258.67797589302063	2.5003340244293213
31	165.97435688972473	pulse	1	t		29.0	2.5	/experiments/AOT/AOT_stimuli/rescaled_final/0357_fw.mp4	0.0	259.86189579963684	
31	167.29077100753784	fix_post	2		12	29.0	2.5	/experiments/AOT/AOT_stimuli/rescaled_final/0357_fw.mp4	0.0	261.17830991744995	0.09996199607849121
32	167.39073300361633	fix_pre	0		120	30.0	2.5	/experiments/AOT/AOT_stimuli/rescaled_final/1508_fw.mp4	0.0	261.27827191352844	1.0000770092010498
32	167.5743968486786	pulse	0	t		30.0	2.5	/experiments/AOT/AOT_stimuli/rescaled_final/1508_fw.mp4	0.0	261.4619357585907	
32	168.39081001281738	movie	1		243	30.0	2.5	/experiments/AOT/AOT_stimuli/rescaled_final/1508_fw.mp4	0.0	262.2783489227295	2.500011920928955
32	169.17426300048828	pulse	1	t		30.0	2.5	/experiments/AOT/AOT_stimuli/rescaled_final/1508_fw.mp4	0.0	263.0618019104004	
32	170.7726490497589	pulse	1	t		30.0	2.5	/experiments/AOT/AOT_stimuli/rescaled_final/1508_fw.mp4	0.0	264.660187959671	
32	170.89082193374634	fix_post	2		12	30.0	2.5	/experiments/AOT/AOT_stimuli/rescaled_final/1508_fw.mp4	0.0	264.77836084365845	0.09989714622497559
33	170.9907190799713	fix_pre	0		120	31.0	2.5	/experiments/AOT/AOT_stimuli/rescaled_final/0321_rv.mp4	0.0	264.8782579898834	1.0000178813934326
33	171.99073696136475	movie	1		243	31.0	2.5	/experiments/AOT/AOT_stimuli/rescaled_final/0321_rv.mp4	0.0	265.87827587127686	2.5000100135803223
33	172.37405586242676	pulse	1	t		31.0	2.5	/experiments/AOT/AOT_stimuli/rescaled_final/0321_rv.mp4	0.0	266.26159477233887	
33	173.97433400154114	pulse	1	t		31.0	2.5	/experiments/AOT/AOT_stimuli/rescaled_final/0321_rv.mp4	0.0	267.86187291145325	
33	174.49074697494507	fix_post	2		12	31.0	2.5	/experiments/AOT/AOT_stimuli/rescaled_final/0321_rv.mp4	0.0	268.3782858848572	0.10004401206970215
34	174.59079098701477	fix_pre	0		119	32.0	2.5	/experiments/AOT/AOT_stimuli/rescaled_final/0081_rv.mp4	0.0	268.4783298969269	0.9917008876800537
34	175.57385087013245	pulse	0	t		32.0	2.5	/experiments/AOT/AOT_stimuli/rescaled_final/0081_rv.mp4	0.0	269.46138978004456	
34	175.58249187469482	movie	1		246	32.0	2.5	/experiments/AOT/AOT_stimuli/rescaled_final/0081_rv.mp4	0.0	269.47003078460693	2.508467197418213
34	177.17407488822937	pulse	1	t		32.0	2.5	/experiments/AOT/AOT_stimuli/rescaled_final/0081_rv.mp4	0.0	271.0616137981415	
34	178.09095907211304	fix_post	2		12	32.0	2.5	/experiments/AOT/AOT_stimuli/rescaled_final/0081_rv.mp4	0.0	271.97849798202515	0.10004591941833496
35	178.19100499153137	fix_pre	0		120	33.0	2.5	blank	1.0	272.0785439014435	0.9997620582580566
35	178.7741150856018	pulse	0	t		33.0	2.5	blank	1.0	272.6616539955139	
35	179.19076704978943	movie	1		300	33.0	2.5	blank	1.0	273.07830595970154	2.4999330043792725
35	180.3742549419403	pulse	1	t		33.0	2.5	blank	1.0	274.2617938518524	
35	181.6907000541687	fix_post	2		12	33.0	2.5	blank	1.0	275.5782389640808	0.10001397132873535
36	181.79071402549744	fix_pre	0		120	34.0	2.5	/experiments/AOT/AOT_stimuli/rescaled_final/2154_rv.mp4	0.0	275.67825293540955	0.9999799728393555
36	181.97433304786682	pulse	0	t		34.0	2.5	/experiments/AOT/AOT_stimuli/rescaled_final/2154_rv.mp4	0.0	275.86187195777893	
36	182.7906939983368	movie	1		243	34.0	2.5	/experiments/AOT/AOT_stimuli/rescaled_final/2154_rv.mp4	0.0	276.6782329082489	2.4999430179595947
36	183.57420706748962	pulse	1	t		34.0	2.5	/experiments/AOT/AOT_stimuli/rescaled_final/2154_rv.mp4	0.0	277.46174597740173	
36	185.17274498939514	pulse	1	t		34.0	2.5	/experiments/AOT/AOT_stimuli/rescaled_final/2154_rv.mp4	0.0	279.06028389930725	
36	185.2906370162964	fix_post	2		12	34.0	2.5	/experiments/AOT/AOT_stimuli/rescaled_final/2154_rv.mp4	0.0	279.1781759262085	0.10006093978881836
37	185.3906979560852	fix_pre	0		120	35.0	2.5	/experiments/AOT/AOT_stimuli/rescaled_final/1805_fw.mp4	0.0	279.2782368659973	0.9999940395355225
37	186.39069199562073	movie	1		247	35.0	2.5	/experiments/AOT/AOT_stimuli/rescaled_final/1805_fw.mp4	0.0	280.27823090553284	2.5000240802764893
37	186.77385807037354	pulse	1	t		35.0	2.5	/experiments/AOT/AOT_stimuli/rescaled_final/1805_fw.mp4	0.0	280.66139698028564	
37	188.37410306930542	pulse	1	t		35.0	2.5	/experiments/AOT/AOT_stimuli/rescaled_final/1805_fw.mp4	0.0	282.26164197921753	
37	188.89071607589722	fix_post	2		12	35.0	2.5	/experiments/AOT/AOT_stimuli/rescaled_final/1805_fw.mp4	0.0	282.7782549858093	0.09992599487304688
38	188.99064207077026	fix_pre	0		119	36.0	2.5	/experiments/AOT/AOT_stimuli/rescaled_final/0030_rv.mp4	0.0	282.8781809806824	0.9917008876800537
38	189.9741199016571	pulse	0	t		36.0	2.5	/experiments/AOT/AOT_stimuli/rescaled_final/0030_rv.mp4	0.0	283.8616588115692	
38	189.98234295845032	movie	1		248	36.0	2.5	/experiments/AOT/AOT_stimuli/rescaled_final/0030_rv.mp4	0.0	283.8698818683624	2.5083200931549072
38	191.5737030506134	pulse	1	t		36.0	2.5	/experiments/AOT/AOT_stimuli/rescaled_final/0030_rv.mp4	0.0	285.4612419605255	
38	192.49066305160522	fix_post	2		12	36.0	2.5	/experiments/AOT/AOT_stimuli/rescaled_final/0030_rv.mp4	0.0	286.37820196151733	0.10002303123474121
39	192.59068608283997	fix_pre	0		120	37.0	2.5	/experiments/AOT/AOT_stimuli/rescaled_final/1740_fw.mp4	0.0	286.4782249927521	0.9999809265136719
39	193.17419385910034	pulse	0	t		37.0	2.5	/experiments/AOT/AOT_stimuli/rescaled_final/1740_fw.mp4	0.0	287.06173276901245	
39	193.59066700935364	movie	1		245	37.0	2.5	/experiments/AOT/AOT_stimuli/rescaled_final/1740_fw.mp4	0.0	287.47820591926575	2.500014066696167
39	194.77425503730774	pulse	1	t		37.0	2.5	/experiments/AOT/AOT_stimuli/rescaled_final/1740_fw.mp4	0.0	288.66179394721985	
39	196.0906810760498	fix_post	2		12	37.0	2.5	/experiments/AOT/AOT_stimuli/rescaled_final/1740_fw.mp4	0.0	289.9782199859619	0.09997200965881348
40	196.19065308570862	fix_pre	0		120	38.0	2.5	/experiments/AOT/AOT_stimuli/rescaled_final/1585_fw.mp4	0.0	290.0781919956207	0.9999399185180664
40	196.3741409778595	pulse	0	t		38.0	2.5	/experiments/AOT/AOT_stimuli/rescaled_final/1585_fw.mp4	0.0	290.2616798877716	
40	197.19059300422668	movie	1		244	38.0	2.5	/experiments/AOT/AOT_stimuli/rescaled_final/1585_fw.mp4	0.0	291.0781319141388	2.500082015991211
40	197.97413802146912	pulse	1	t		38.0	2.5	/experiments/AOT/AOT_stimuli/rescaled_final/1585_fw.mp4	0.0	291.8616769313812	
40	199.5745689868927	pulse	1	t		38.0	2.5	/experiments/AOT/AOT_stimuli/rescaled_final/1585_fw.mp4	0.0	293.4621078968048	
40	199.6906750202179	fix_post	2		12	38.0	2.5	/experiments/AOT/AOT_stimuli/rescaled_final/1585_fw.mp4	0.0	293.57821393013	0.09997987747192383
41	199.79065489768982	fix_pre	0		120	39.0	2.5	/experiments/AOT/AOT_stimuli/rescaled_final/2029_fw.mp4	0.0	293.67819380760193	0.9999380111694336
41	200.79059290885925	movie	1		244	39.0	2.5	/experiments/AOT/AOT_stimuli/rescaled_final/2029_fw.mp4	0.0	294.67813181877136	2.5001471042633057
41	201.17533588409424	pulse	1	t		39.0	2.5	/experiments/AOT/AOT_stimuli/rescaled_final/2029_fw.mp4	0.0	295.06287479400635	
41	202.77414393424988	pulse	1	t		39.0	2.5	/experiments/AOT/AOT_stimuli/rescaled_final/2029_fw.mp4	0.0	296.661682844162	
41	203.29074001312256	fix_post	2		12	39.0	2.5	/experiments/AOT/AOT_stimuli/rescaled_final/2029_fw.mp4	0.0	297.17827892303467	0.09979891777038574
42	203.39053893089294	fix_pre	0		119	40.0	2.5	/experiments/AOT/AOT_stimuli/rescaled_final/0915_rv.mp4	0.0	297.27807784080505	0.991753101348877
42	204.37411499023438	pulse	0	t		40.0	2.5	/experiments/AOT/AOT_stimuli/rescaled_final/0915_rv.mp4	0.0	298.2616539001465	
42	204.38229203224182	movie	1		244	40.0	2.5	/experiments/AOT/AOT_stimuli/rescaled_final/0915_rv.mp4	0.0	298.26983094215393	2.5083298683166504
42	205.97400188446045	pulse	1	t		40.0	2.5	/experiments/AOT/AOT_stimuli/rescaled_final/0915_rv.mp4	0.0	299.86154079437256	
42	206.89062190055847	fix_post	2		12	40.0	2.5	/experiments/AOT/AOT_stimuli/rescaled_final/0915_rv.mp4	0.0	300.7781608104706	0.09997296333312988
43	206.9905948638916	fix_pre	0		120	41.0	2.5	blank	1.0	300.8781337738037	0.9999401569366455
43	207.5741090774536	pulse	0	t		41.0	2.5	blank	1.0	301.4616479873657	
43	207.99053502082825	movie	1		300	41.0	2.5	blank	1.0	301.87807393074036	2.50004506111145
43	209.17436385154724	pulse	1	t		41.0	2.5	blank	1.0	303.06190276145935	
43	210.4905800819397	fix_post	2		12	41.0	2.5	blank	1.0	304.3781189918518	0.09997987747192383
44	210.59055995941162	fix_pre	0		120	42.0	2.5	/experiments/AOT/AOT_stimuli/rescaled_final/0144_fw.mp4	0.0	304.47809886932373	1.000046968460083
44	210.774071931839	pulse	0	t		42.0	2.5	/experiments/AOT/AOT_stimuli/rescaled_final/0144_fw.mp4	0.0	304.6616108417511	
44	211.5906069278717	movie	1		244	42.0	2.5	/experiments/AOT/AOT_stimuli/rescaled_final/0144_fw.mp4	0.0	305.4781458377838	2.4999661445617676
44	212.37410593032837	pulse	1	t		42.0	2.5	/experiments/AOT/AOT_stimuli/rescaled_final/0144_fw.mp4	0.0	306.2616448402405	
44	213.97251987457275	pulse	1	t		42.0	2.5	/experiments/AOT/AOT_stimuli/rescaled_final/0144_fw.mp4	0.0	307.86005878448486	
44	214.09057307243347	fix_post	2		12	42.0	2.5	/experiments/AOT/AOT_stimuli/rescaled_final/0144_fw.mp4	0.0	307.9781119823456	0.09957695007324219
45	214.1901500225067	fix_pre	0		120	43.0	2.5	/experiments/AOT/AOT_stimuli/rescaled_final/1843_rv.mp4	0.0	308.0776889324188	1.000403881072998
45	215.1905539035797	movie	1		244	43.0	2.5	/experiments/AOT/AOT_stimuli/rescaled_final/1843_rv.mp4	0.0	309.0780928134918	2.5
45	215.57360887527466	pulse	1	t		43.0	2.5	/experiments/AOT/AOT_stimuli/rescaled_final/1843_rv.mp4	0.0	309.46114778518677	
45	217.17407393455505	pulse	1	t		43.0	2.5	/experiments/AOT/AOT_stimuli/rescaled_final/1843_rv.mp4	0.0	311.06161284446716	
45	217.6905539035797	fix_post	2		12	43.0	2.5	/experiments/AOT/AOT_stimuli/rescaled_final/1843_rv.mp4	0.0	311.5780928134918	0.10003209114074707
46	217.79058599472046	fix_pre	0		119	44.0	2.5	/experiments/AOT/AOT_stimuli/rescaled_final/0030_fw.mp4	0.0	311.67812490463257	0.9915668964385986
46	218.77407693862915	pulse	0	t		44.0	2.5	/experiments/AOT/AOT_stimuli/rescaled_final/0030_fw.mp4	0.0	312.66161584854126	
46	218.78215289115906	movie	1		247	44.0	2.5	/experiments/AOT/AOT_stimuli/rescaled_final/0030_fw.mp4	0.0	312.66969180107117	2.5084049701690674
46	220.37386393547058	pulse	1	t		44.0	2.5	/experiments/AOT/AOT_stimuli/rescaled_final/0030_fw.mp4	0.0	314.2614028453827	
46	221.29055786132812	fix_post	2		12	44.0	2.5	/experiments/AOT/AOT_stimuli/rescaled_final/0030_fw.mp4	0.0	315.17809677124023	0.09994006156921387
47	221.39049792289734	fix_pre	0		120	45.0	2.5	/experiments/AOT/AOT_stimuli/rescaled_final/0023_rv.mp4	0.0	315.27803683280945	1.0000181198120117
47	221.97406601905823	pulse	0	t		45.0	2.5	/experiments/AOT/AOT_stimuli/rescaled_final/0023_rv.mp4	0.0	315.86160492897034	
47	222.39051604270935	movie	1		245	45.0	2.5	/experiments/AOT/AOT_stimuli/rescaled_final/0023_rv.mp4	0.0	316.27805495262146	2.500088930130005
47	223.57412385940552	pulse	1	t		45.0	2.5	/experiments/AOT/AOT_stimuli/rescaled_final/0023_rv.mp4	0.0	317.4616627693176	
47	224.89060497283936	fix_post	2		12	45.0	2.5	/experiments/AOT/AOT_stimuli/rescaled_final/0023_rv.mp4	0.0	318.77814388275146	0.09999799728393555
48	224.9906029701233	fix_pre	0		120	46.0	2.5	/experiments/AOT/AOT_stimuli/rescaled_final/0627_fw.mp4	0.0	318.8781418800354	1.000006914138794
48	225.17410397529602	pulse	0	t		46.0	2.5	/experiments/AOT/AOT_stimuli/rescaled_final/0627_fw.mp4	0.0	319.06164288520813	
48	225.99060988426208	movie	1		243	46.0	2.5	/experiments/AOT/AOT_stimuli/rescaled_final/0627_fw.mp4	0.0	319.8781487941742	2.499994993209839
48	226.77398991584778	pulse	1	t		46.0	2.5	/experiments/AOT/AOT_stimuli/rescaled_final/0627_fw.mp4	0.0	320.6615288257599	
48	228.37279891967773	pulse	1	t		46.0	2.5	/experiments/AOT/AOT_stimuli/rescaled_final/0627_fw.mp4	0.0	322.26033782958984	
48	228.49060487747192	fix_post	2		12	46.0	2.5	/experiments/AOT/AOT_stimuli/rescaled_final/0627_fw.mp4	0.0	322.37814378738403	0.09993600845336914
49	228.5905408859253	fix_pre	0		120	47.0	2.5	blank	1.0	322.4780797958374	0.9999661445617676
49	229.59050703048706	movie	1		300	47.0	2.5	blank	1.0	323.47804594039917	2.49959397315979
49	229.9741928577423	pulse	1	t		47.0	2.5	blank	1.0	323.8617317676544	
49	231.57356595993042	pulse	1	t		47.0	2.5	blank	1.0	325.46110486984253	
49	232.09010100364685	fix_post	2		12	47.0	2.5	blank	1.0	325.97763991355896	0.10046100616455078
50	232.1905620098114	fix_pre	0		119	48.0	2.5	/experiments/AOT/AOT_stimuli/rescaled_final/0202_rv.mp4	0.0	326.0781009197235	0.9917199611663818
50	233.17410492897034	pulse	0	t		48.0	2.5	/experiments/AOT/AOT_stimuli/rescaled_final/0202_rv.mp4	0.0	327.06164383888245	
50	233.18228197097778	movie	1		247	48.0	2.5	/experiments/AOT/AOT_stimuli/rescaled_final/0202_rv.mp4	0.0	327.0698208808899	2.5082850456237793
50	234.77381086349487	pulse	1	t		48.0	2.5	/experiments/AOT/AOT_stimuli/rescaled_final/0202_rv.mp4	0.0	328.661349773407	
50	235.69056701660156	fix_post	2		12	48.0	2.5	/experiments/AOT/AOT_stimuli/rescaled_final/0202_rv.mp4	0.0	329.5781059265137	0.09992098808288574
51	235.79048800468445	fix_pre	0		120	49.0	2.5	/experiments/AOT/AOT_stimuli/rescaled_final/1365_fw.mp4	0.0	329.67802691459656	1.0000410079956055
51	236.37388706207275	pulse	0	t		49.0	2.5	/experiments/AOT/AOT_stimuli/rescaled_final/1365_fw.mp4	0.0	330.26142597198486	
51	236.79052901268005	movie	1		245	49.0	2.5	/experiments/AOT/AOT_stimuli/rescaled_final/1365_fw.mp4	0.0	330.67806792259216	2.4996299743652344
51	237.9740879535675	pulse	1	t		49.0	2.5	/experiments/AOT/AOT_stimuli/rescaled_final/1365_fw.mp4	0.0	331.8616268634796	
51	239.2901589870453	fix_post	2		12	49.0	2.5	/experiments/AOT/AOT_stimuli/rescaled_final/1365_fw.mp4	0.0	333.1776978969574	0.10034489631652832
52	239.39050388336182	fix_pre	0		120	50.0	2.5	/experiments/AOT/AOT_stimuli/rescaled_final/0209_rv.mp4	0.0	333.2780427932739	0.9995391368865967
52	239.57404685020447	pulse	0	t		50.0	2.5	/experiments/AOT/AOT_stimuli/rescaled_final/0209_rv.mp4	0.0	333.4615857601166	
52	240.3900430202484	movie	1		247	50.0	2.5	/experiments/AOT/AOT_stimuli/rescaled_final/0209_rv.mp4	0.0	334.2775819301605	2.500332832336426
52	241.1738829612732	pulse	1	t		50.0	2.5	/experiments/AOT/AOT_stimuli/rescaled_final/0209_rv.mp4	0.0	335.0614218711853	
52	242.77351188659668	pulse	1	t		50.0	2.5	/experiments/AOT/AOT_stimuli/rescaled_final/0209_rv.mp4	0.0	336.6610507965088	
52	242.89037585258484	fix_post	2		12	50.0	2.5	/experiments/AOT/AOT_stimuli/rescaled_final/0209_rv.mp4	0.0	336.77791476249695	0.10001611709594727
53	242.9903919696808	fix_pre	0		120	51.0	2.5	/experiments/AOT/AOT_stimuli/rescaled_final/0321_rv.mp4	0.0	336.8779308795929	1.0000379085540771
53	243.99042987823486	movie	1		243	51.0	2.5	/experiments/AOT/AOT_stimuli/rescaled_final/0321_rv.mp4	0.0	337.877968788147	2.4999821186065674
53	244.37364387512207	pulse	1	t		51.0	2.5	/experiments/AOT/AOT_stimuli/rescaled_final/0321_rv.mp4	0.0	338.2611827850342	
53	245.97389698028564	pulse	1	t		51.0	2.5	/experiments/AOT/AOT_stimuli/rescaled_final/0321_rv.mp4	0.0	339.86143589019775	
53	246.49041199684143	fix_post	2		12	51.0	2.5	/experiments/AOT/AOT_stimuli/rescaled_final/0321_rv.mp4	0.0	340.37795090675354	0.09998798370361328
54	246.59039998054504	fix_pre	0		119	52.0	2.5	/experiments/AOT/AOT_stimuli/rescaled_final/1278_fw.mp4	0.0	340.47793889045715	0.9916260242462158
54	247.57388401031494	pulse	0	t		52.0	2.5	/experiments/AOT/AOT_stimuli/rescaled_final/1278_fw.mp4	0.0	341.46142292022705	
54	247.58202600479126	movie	1		246	52.0	2.5	/experiments/AOT/AOT_stimuli/rescaled_final/1278_fw.mp4	0.0	341.46956491470337	2.5082578659057617
54	249.17384886741638	pulse	1	t		52.0	2.5	/experiments/AOT/AOT_stimuli/rescaled_final/1278_fw.mp4	0.0	343.0613877773285	
54	250.09028387069702	fix_post	2		12	52.0	2.5	/experiments/AOT/AOT_stimuli/rescaled_final/1278_fw.mp4	0.0	343.97782278060913	0.1000981330871582
55	250.19038200378418	fix_pre	0		120	53.0	2.5	/experiments/AOT/AOT_stimuli/rescaled_final/2067_rv.mp4	0.0	344.0779209136963	1.0000150203704834
55	250.7739040851593	pulse	0	t		53.0	2.5	/experiments/AOT/AOT_stimuli/rescaled_final/2067_rv.mp4	0.0	344.6614429950714	
55	251.19039702415466	movie	1		244	53.0	2.5	/experiments/AOT/AOT_stimuli/rescaled_final/2067_rv.mp4	0.0	345.0779359340668	2.4995548725128174
55	252.37403798103333	pulse	1	t		53.0	2.5	/experiments/AOT/AOT_stimuli/rescaled_final/2067_rv.mp4	0.0	346.26157689094543	
55	253.68995189666748	fix_post	2		12	53.0	2.5	/experiments/AOT/AOT_stimuli/rescaled_final/2067_rv.mp4	0.0	347.5774908065796	0.10041618347167969
56	253.79036808013916	fix_pre	0		120	54.0	2.5	/experiments/AOT/AOT_stimuli/rescaled_final/2179_fw.mp4	0.0	347.67790699005127	1.000086784362793
56	253.97387194633484	pulse	0	t		54.0	2.5	/experiments/AOT/AOT_stimuli/rescaled_final/2179_fw.mp4	0.0	347.86141085624695	
56	254.79045486450195	movie	1		243	54.0	2.5	/experiments/AOT/AOT_stimuli/rescaled_final/2179_fw.mp4	0.0	348.67799377441406	2.4994730949401855
56	255.57387495040894	pulse	1	t		54.0	2.5	/experiments/AOT/AOT_stimuli/rescaled_final/2179_fw.mp4	0.0	349.46141386032104	
56	257.1722159385681	pulse	1	t		54.0	2.5	/experiments/AOT/AOT_stimuli/rescaled_final/2179_fw.mp4	0.0	351.0597548484802	
56	257.28992795944214	fix_post	2		12	54.0	2.5	/experiments/AOT/AOT_stimuli/rescaled_final/2179_fw.mp4	0.0	351.17746686935425	0.10050392150878906
57	257.3904318809509	fix_pre	0		120	55.0	2.5	blank	1.0	351.27797079086304	0.9999861717224121
57	258.39041805267334	movie	1		300	55.0	2.5	blank	1.0	352.27795696258545	2.500166893005371
57	258.7738308906555	pulse	1	t		55.0	2.5	blank	1.0	352.6613698005676	
57	260.3738648891449	pulse	1	t		55.0	2.5	blank	1.0	354.261403799057	
57	260.8905849456787	fix_post	2		12	55.0	2.5	blank	1.0	354.7781238555908	0.09982895851135254
58	260.99041390419006	fix_pre	0		119	56.0	2.5	/experiments/AOT/AOT_stimuli/rescaled_final/2001_fw.mp4	0.0	354.8779528141022	0.9915680885314941
58	261.97388792037964	pulse	0	t		56.0	2.5	/experiments/AOT/AOT_stimuli/rescaled_final/2001_fw.mp4	0.0	355.86142683029175	
58	261.98198199272156	movie	1		247	56.0	2.5	/experiments/AOT/AOT_stimuli/rescaled_final/2001_fw.mp4	0.0	355.86952090263367	2.5083529949188232
58	263.57332706451416	pulse	1	t		56.0	2.5	/experiments/AOT/AOT_stimuli/rescaled_final/2001_fw.mp4	0.0	357.46086597442627	
58	264.4903349876404	fix_post	2		12	56.0	2.5	/experiments/AOT/AOT_stimuli/rescaled_final/2001_fw.mp4	0.0	358.3778738975525	0.10001301765441895
59	264.5903480052948	fix_pre	0		120	57.0	2.5	/experiments/AOT/AOT_stimuli/rescaled_final/1922_fw.mp4	0.0	358.4778869152069	0.999924898147583
59	265.1737949848175	pulse	0	t		57.0	2.5	/experiments/AOT/AOT_stimuli/rescaled_final/1922_fw.mp4	0.0	359.0613338947296	
59	265.5902729034424	movie	1		245	57.0	2.5	/experiments/AOT/AOT_stimuli/rescaled_final/1922_fw.mp4	0.0	359.4778118133545	2.500101089477539
59	266.7738540172577	pulse	1	t		57.0	2.5	/experiments/AOT/AOT_stimuli/rescaled_final/1922_fw.mp4	0.0	360.6613929271698	
59	268.0903739929199	fix_post	2		12	57.0	2.5	/experiments/AOT/AOT_stimuli/rescaled_final/1922_fw.mp4	0.0	361.97791290283203	0.09992694854736328
60	268.1903009414673	fix_pre	0		120	58.0	2.5	/experiments/AOT/AOT_stimuli/rescaled_final/1760_rv.mp4	0.0	362.0778398513794	1.000020980834961
60	268.37382793426514	pulse	0	t		58.0	2.5	/experiments/AOT/AOT_stimuli/rescaled_final/1760_rv.mp4	0.0	362.26136684417725	
60	269.19032192230225	movie	1		244	58.0	2.5	/experiments/AOT/AOT_stimuli/rescaled_final/1760_rv.mp4	0.0	363.07786083221436	2.4995410442352295
60	269.9738459587097	pulse	1	t		58.0	2.5	/experiments/AOT/AOT_stimuli/rescaled_final/1760_rv.mp4	0.0	363.8613848686218	
60	271.57248401641846	pulse	1	t		58.0	2.5	/experiments/AOT/AOT_stimuli/rescaled_final/1760_rv.mp4	0.0	365.46002292633057	
60	271.6898629665375	fix_post	2		12	58.0	2.5	/experiments/AOT/AOT_stimuli/rescaled_final/1760_rv.mp4	0.0	365.5774018764496	0.10046911239624023
61	271.7903320789337	fix_pre	0		120	59.0	2.5	/experiments/AOT/AOT_stimuli/rescaled_final/1119_rv.mp4	0.0	365.6778709888458	0.9999539852142334
61	272.79028606414795	movie	1		244	59.0	2.5	/experiments/AOT/AOT_stimuli/rescaled_final/1119_rv.mp4	0.0	366.67782497406006	2.4995648860931396
61	273.1733498573303	pulse	1	t		59.0	2.5	/experiments/AOT/AOT_stimuli/rescaled_final/1119_rv.mp4	0.0	367.06088876724243	
61	274.7738389968872	pulse	1	t		59.0	2.5	/experiments/AOT/AOT_stimuli/rescaled_final/1119_rv.mp4	0.0	368.6613779067993	
61	275.2898509502411	fix_post	2		12	59.0	2.5	/experiments/AOT/AOT_stimuli/rescaled_final/1119_rv.mp4	0.0	369.1773898601532	0.10048508644104004
62	275.39033603668213	fix_pre	0		119	60.0	2.5	/experiments/AOT/AOT_stimuli/rescaled_final/0419_rv.mp4	0.0	369.27787494659424	0.9915878772735596
62	276.37369894981384	pulse	0	t		60.0	2.5	/experiments/AOT/AOT_stimuli/rescaled_final/0419_rv.mp4	0.0	370.26123785972595	
62	276.3819239139557	movie	1		245	60.0	2.5	/experiments/AOT/AOT_stimuli/rescaled_final/0419_rv.mp4	0.0	370.2694628238678	2.508378028869629
62	277.9734308719635	pulse	1	t		60.0	2.5	/experiments/AOT/AOT_stimuli/rescaled_final/0419_rv.mp4	0.0	371.8609697818756	
62	278.8903019428253	fix_post	2		12	60.0	2.5	/experiments/AOT/AOT_stimuli/rescaled_final/0419_rv.mp4	0.0	372.7778408527374	0.10003805160522461
63	278.99033999443054	fix_pre	0		120	61.0	2.5	/experiments/AOT/AOT_stimuli/rescaled_final/2056_fw.mp4	0.0	372.87787890434265	0.9994778633117676
63	279.5738160610199	pulse	0	t		61.0	2.5	/experiments/AOT/AOT_stimuli/rescaled_final/2056_fw.mp4	0.0	373.461354970932	
63	279.9898178577423	movie	1		244	61.0	2.5	/experiments/AOT/AOT_stimuli/rescaled_final/2056_fw.mp4	0.0	373.8773567676544	2.5004990100860596
63	281.173819065094	pulse	1	t		61.0	2.5	/experiments/AOT/AOT_stimuli/rescaled_final/2056_fw.mp4	0.0	375.0613579750061	
63	282.49031686782837	fix_post	2		12	61.0	2.5	/experiments/AOT/AOT_stimuli/rescaled_final/2056_fw.mp4	0.0	376.3778557777405	0.1000370979309082
64	282.5903539657593	fix_pre	0		120	62.0	2.5	/experiments/AOT/AOT_stimuli/rescaled_final/0357_rv.mp4	0.0	376.4778928756714	0.9998970031738281
64	282.7736849784851	pulse	0	t		62.0	2.5	/experiments/AOT/AOT_stimuli/rescaled_final/0357_rv.mp4	0.0	376.6612238883972	
64	283.5902509689331	movie	1		245	62.0	2.5	/experiments/AOT/AOT_stimuli/rescaled_final/0357_rv.mp4	0.0	377.4777898788452	2.4996180534362793
64	284.37374997138977	pulse	1	t		62.0	2.5	/experiments/AOT/AOT_stimuli/rescaled_final/0357_rv.mp4	0.0	378.2612888813019	
64	285.97266697883606	pulse	1	t		62.0	2.5	/experiments/AOT/AOT_stimuli/rescaled_final/0357_rv.mp4	0.0	379.86020588874817	
64	286.0898690223694	fix_post	2		12	62.0	2.5	/experiments/AOT/AOT_stimuli/rescaled_final/0357_rv.mp4	0.0	379.9774079322815	0.10045003890991211
65	286.1903190612793	fix_pre	0		120	63.0	2.5	blank	1.0	380.0778579711914	0.9994978904724121
65	287.1898169517517	movie	1		300	63.0	2.5	blank	1.0	381.0773558616638	2.5006189346313477
65	287.57383704185486	pulse	1	t		63.0	2.5	blank	1.0	381.46137595176697	
65	289.1738209724426	pulse	1	t		63.0	2.5	blank	1.0	383.06135988235474	
65	289.69043588638306	fix_post	2		12	63.0	2.5	blank	1.0	383.57797479629517	0.09964513778686523
66	289.7900810241699	fix_pre	0		119	64.0	2.5	/experiments/AOT/AOT_stimuli/rescaled_final/0564_rv.mp4	0.0	383.67761993408203	0.9917449951171875
66	290.77371191978455	pulse	0	t		64.0	2.5	/experiments/AOT/AOT_stimuli/rescaled_final/0564_rv.mp4	0.0	384.66125082969666	
66	290.7818260192871	movie	1		244	64.0	2.5	/experiments/AOT/AOT_stimuli/rescaled_final/0564_rv.mp4	0.0	384.6693649291992	2.508502960205078
66	292.3734178543091	pulse	1	t		64.0	2.5	/experiments/AOT/AOT_stimuli/rescaled_final/0564_rv.mp4	0.0	386.2609567642212	
66	293.2903289794922	fix_post	2		12	64.0	2.5	/experiments/AOT/AOT_stimuli/rescaled_final/0564_rv.mp4	0.0	387.1778678894043	0.09991288185119629
67	293.3902418613434	fix_pre	0		120	65.0	2.5	/experiments/AOT/AOT_stimuli/rescaled_final/1441_rv.mp4	0.0	387.2777807712555	0.9999520778656006
67	293.9737229347229	pulse	0	t		65.0	2.5	/experiments/AOT/AOT_stimuli/rescaled_final/1441_rv.mp4	0.0	387.861261844635	
67	294.390193939209	movie	1		243	65.0	2.5	/experiments/AOT/AOT_stimuli/rescaled_final/1441_rv.mp4	0.0	388.2777328491211	2.4999430179595947
67	295.57367491722107	pulse	1	t		65.0	2.5	/experiments/AOT/AOT_stimuli/rescaled_final/1441_rv.mp4	0.0	389.4612138271332	
67	296.8901369571686	fix_post	2		12	65.0	2.5	/experiments/AOT/AOT_stimuli/rescaled_final/1441_rv.mp4	0.0	390.7776758670807	0.09999299049377441
68	296.99012994766235	fix_pre	0		120	66.0	2.5	/experiments/AOT/AOT_stimuli/rescaled_final/1670_fw.mp4	0.0	390.87766885757446	1.000035047531128
68	297.1736490726471	pulse	0	t		66.0	2.5	/experiments/AOT/AOT_stimuli/rescaled_final/1670_fw.mp4	0.0	391.0611879825592	
68	297.9901649951935	movie	1		244	66.0	2.5	/experiments/AOT/AOT_stimuli/rescaled_final/1670_fw.mp4	0.0	391.8777039051056	2.5000100135803223
68	298.7737338542938	pulse	1	t		66.0	2.5	/experiments/AOT/AOT_stimuli/rescaled_final/1670_fw.mp4	0.0	392.66127276420593	
68	300.36985301971436	pulse	1	t		66.0	2.5	/experiments/AOT/AOT_stimuli/rescaled_final/1670_fw.mp4	0.0	394.25739192962646	
68	300.4901750087738	fix_post	2		12	66.0	2.5	/experiments/AOT/AOT_stimuli/rescaled_final/1670_fw.mp4	0.0	394.3777139186859	0.10000896453857422
69	300.5901839733124	fix_pre	0		120	67.0	2.5	/experiments/AOT/AOT_stimuli/rescaled_final/0621_fw.mp4	0.0	394.4777228832245	0.9999570846557617
69	301.59014105796814	movie	1		243	67.0	2.5	/experiments/AOT/AOT_stimuli/rescaled_final/0621_fw.mp4	0.0	395.47767996788025	2.499945878982544
69	301.9742429256439	pulse	1	t		67.0	2.5	/experiments/AOT/AOT_stimuli/rescaled_final/0621_fw.mp4	0.0	395.86178183555603	
69	303.5736229419708	pulse	1	t		67.0	2.5	/experiments/AOT/AOT_stimuli/rescaled_final/0621_fw.mp4	0.0	397.46116185188293	
69	304.0900869369507	fix_post	2		12	67.0	2.5	/experiments/AOT/AOT_stimuli/rescaled_final/0621_fw.mp4	0.0	397.9776258468628	0.10000491142272949
70	304.1900918483734	fix_pre	0		119	68.0	2.5	/experiments/AOT/AOT_stimuli/rescaled_final/1917_rv.mp4	0.0	398.0776307582855	0.9917352199554443
70	305.173702955246	pulse	0	t		68.0	2.5	/experiments/AOT/AOT_stimuli/rescaled_final/1917_rv.mp4	0.0	399.0612418651581	
70	305.18182706832886	movie	1		248	68.0	2.5	/experiments/AOT/AOT_stimuli/rescaled_final/1917_rv.mp4	0.0	399.06936597824097	2.508236885070801
70	306.77365803718567	pulse	1	t		68.0	2.5	/experiments/AOT/AOT_stimuli/rescaled_final/1917_rv.mp4	0.0	400.6611969470978	
70	307.69006395339966	fix_post	2		12	68.0	2.5	/experiments/AOT/AOT_stimuli/rescaled_final/1917_rv.mp4	0.0	401.57760286331177	0.09997701644897461
71	307.79004096984863	fix_pre	0		120	69.0	2.5	/experiments/AOT/AOT_stimuli/rescaled_final/1365_rv.mp4	0.0	401.67757987976074	1.0000889301300049
71	308.37375807762146	pulse	0	t		69.0	2.5	/experiments/AOT/AOT_stimuli/rescaled_final/1365_rv.mp4	0.0	402.26129698753357	
71	308.79012989997864	movie	1		244	69.0	2.5	/experiments/AOT/AOT_stimuli/rescaled_final/1365_rv.mp4	0.0	402.67766880989075	2.499998092651367
71	309.97371888160706	pulse	1	t		69.0	2.5	/experiments/AOT/AOT_stimuli/rescaled_final/1365_rv.mp4	0.0	403.86125779151917	
71	311.29012799263	fix_post	2		12	69.0	2.5	/experiments/AOT/AOT_stimuli/rescaled_final/1365_rv.mp4	0.0	405.1776669025421	0.09998488426208496
72	311.3901128768921	fix_pre	0		120	70.0	2.5	blank	1.0	405.2776517868042	1.000204086303711
72	311.5736289024353	pulse	0	t		70.0	2.5	blank	1.0	405.4611678123474	
72	312.3903169631958	movie	1		300	70.0	2.5	blank	1.0	406.2778558731079	2.4997880458831787
72	313.17369985580444	pulse	1	t		70.0	2.5	blank	1.0	407.06123876571655	
72	314.77352690696716	pulse	1	t		70.0	2.5	blank	1.0	408.6610658168793	
72	314.890105009079	fix_post	2		12	70.0	2.5	blank	1.0	408.7776439189911	0.1000218391418457
73	314.9901268482208	fix_pre	0		120	71.0	2.5	/experiments/AOT/AOT_stimuli/rescaled_final/1969_fw.mp4	0.0	408.87766575813293	0.999547004699707
73	315.98967385292053	movie	1		244	71.0	2.5	/experiments/AOT/AOT_stimuli/rescaled_final/1969_fw.mp4	0.0	409.87721276283264	2.5004172325134277
73	316.3737030029297	pulse	1	t		71.0	2.5	/experiments/AOT/AOT_stimuli/rescaled_final/1969_fw.mp4	0.0	410.2612419128418	
73	317.973552942276	pulse	1	t		71.0	2.5	/experiments/AOT/AOT_stimuli/rescaled_final/1969_fw.mp4	0.0	411.8610918521881	
73	318.49009108543396	fix_post	2		12	71.0	2.5	/experiments/AOT/AOT_stimuli/rescaled_final/1969_fw.mp4	0.0	412.37762999534607	0.09991097450256348
74	318.5900020599365	fix_pre	0		119	72.0	2.5	/experiments/AOT/AOT_stimuli/rescaled_final/1339_fw.mp4	0.0	412.47754096984863	0.9917209148406982
74	319.5735490322113	pulse	0	t		72.0	2.5	/experiments/AOT/AOT_stimuli/rescaled_final/1339_fw.mp4	0.0	413.4610879421234	
74	319.5817229747772	movie	1		244	72.0	2.5	/experiments/AOT/AOT_stimuli/rescaled_final/1339_fw.mp4	0.0	413.46926188468933	2.5084469318389893
74	321.17482805252075	pulse	1	t		72.0	2.5	/experiments/AOT/AOT_stimuli/rescaled_final/1339_fw.mp4	0.0	415.06236696243286	
74	322.0901699066162	fix_post	2		12	72.0	2.5	/experiments/AOT/AOT_stimuli/rescaled_final/1339_fw.mp4	0.0	415.9777088165283	0.10005402565002441
75	322.19022393226624	fix_pre	0		120	73.0	2.5	/experiments/AOT/AOT_stimuli/rescaled_final/1119_fw.mp4	0.0	416.07776284217834	0.9997930526733398
75	322.77359199523926	pulse	0	t		73.0	2.5	/experiments/AOT/AOT_stimuli/rescaled_final/1119_fw.mp4	0.0	416.66113090515137	
75	323.1900169849396	movie	1		244	73.0	2.5	/experiments/AOT/AOT_stimuli/rescaled_final/1119_fw.mp4	0.0	417.0775558948517	2.4996390342712402
75	324.37362790107727	pulse	1	t		73.0	2.5	/experiments/AOT/AOT_stimuli/rescaled_final/1119_fw.mp4	0.0	418.2611668109894	
75	325.6896560192108	fix_post	2		12	73.0	2.5	/experiments/AOT/AOT_stimuli/rescaled_final/1119_fw.mp4	0.0	419.5771949291229	0.10031890869140625
76	325.7899749279022	fix_pre	0		120	74.0	2.5	/experiments/AOT/AOT_stimuli/rescaled_final/1584_fw.mp4	0.0	419.67751383781433	1.0000910758972168
76	325.9735538959503	pulse	0	t		74.0	2.5	/experiments/AOT/AOT_stimuli/rescaled_final/1584_fw.mp4	0.0	419.8610928058624	
76	326.79006600379944	movie	1		246	74.0	2.5	/experiments/AOT/AOT_stimuli/rescaled_final/1584_fw.mp4	0.0	420.67760491371155	2.5000109672546387
76	327.5735650062561	pulse	1	t		74.0	2.5	/experiments/AOT/AOT_stimuli/rescaled_final/1584_fw.mp4	0.0	421.4611039161682	
76	329.17224407196045	pulse	1	t		74.0	2.5	/experiments/AOT/AOT_stimuli/rescaled_final/1584_fw.mp4	0.0	423.05978298187256	
76	329.2900769710541	fix_post	2		12	74.0	2.5	/experiments/AOT/AOT_stimuli/rescaled_final/1584_fw.mp4	0.0	423.1776158809662	0.09994697570800781
77	329.3900239467621	fix_pre	0		120	75.0	2.5	/experiments/AOT/AOT_stimuli/rescaled_final/0621_rv.mp4	0.0	423.2775628566742	0.9999780654907227
77	330.3900020122528	movie	1		243	75.0	2.5	/experiments/AOT/AOT_stimuli/rescaled_final/0621_rv.mp4	0.0	424.2775409221649	2.5000569820404053
77	330.7732889652252	pulse	1	t		75.0	2.5	/experiments/AOT/AOT_stimuli/rescaled_final/0621_rv.mp4	0.0	424.66082787513733	
77	332.373496055603	pulse	1	t		75.0	2.5	/experiments/AOT/AOT_stimuli/rescaled_final/0621_rv.mp4	0.0	426.26103496551514	
77	332.8900589942932	fix_post	2		12	75.0	2.5	/experiments/AOT/AOT_stimuli/rescaled_final/0621_rv.mp4	0.0	426.7775979042053	0.09995603561401367
78	332.9900150299072	fix_pre	0		119	76.0	2.5	blank	1.0	426.87755393981934	0.991602897644043
78	333.9734399318695	pulse	0	t		76.0	2.5	blank	1.0	427.8609788417816	
78	333.98161792755127	movie	1		301	76.0	2.5	blank	1.0	427.8691568374634	2.50833797454834
78	335.57340908050537	pulse	1	t		76.0	2.5	blank	1.0	429.4609479904175	
78	336.4899559020996	fix_post	2		12	76.0	2.5	blank	1.0	430.3774948120117	0.10011100769042969
79	336.59006690979004	fix_pre	0		120	77.0	2.5	/experiments/AOT/AOT_stimuli/rescaled_final/1927_rv.mp4	0.0	430.47760581970215	0.9998860359191895
79	337.1735169887543	pulse	0	t		77.0	2.5	/experiments/AOT/AOT_stimuli/rescaled_final/1927_rv.mp4	0.0	431.0610558986664	
79	337.58995294570923	movie	1		243	77.0	2.5	/experiments/AOT/AOT_stimuli/rescaled_final/1927_rv.mp4	0.0	431.47749185562134	2.5001909732818604
79	338.77368092536926	pulse	1	t		77.0	2.5	/experiments/AOT/AOT_stimuli/rescaled_final/1927_rv.mp4	0.0	432.6612198352814	
79	340.0901439189911	fix_post	2		12	77.0	2.5	/experiments/AOT/AOT_stimuli/rescaled_final/1927_rv.mp4	0.0	433.9776828289032	0.09990406036376953
80	340.19004797935486	fix_pre	0		120	78.0	2.5	/experiments/AOT/AOT_stimuli/rescaled_final/0065_rv.mp4	0.0	434.07758688926697	0.9999909400939941
80	340.373517036438	pulse	0	t		78.0	2.5	/experiments/AOT/AOT_stimuli/rescaled_final/0065_rv.mp4	0.0	434.2610559463501	
80	341.19003891944885	movie	1		243	78.0	2.5	/experiments/AOT/AOT_stimuli/rescaled_final/0065_rv.mp4	0.0	435.07757782936096	2.4995310306549072
80	341.97343587875366	pulse	1	t		78.0	2.5	/experiments/AOT/AOT_stimuli/rescaled_final/0065_rv.mp4	0.0	435.86097478866577	
80	343.572340965271	pulse	1	t		78.0	2.5	/experiments/AOT/AOT_stimuli/rescaled_final/0065_rv.mp4	0.0	437.4598798751831	
80	343.68956995010376	fix_post	2		12	78.0	2.5	/experiments/AOT/AOT_stimuli/rescaled_final/0065_rv.mp4	0.0	437.57710886001587	0.10001611709594727
81	343.7895860671997	fix_pre	0		120	79.0	2.5	/experiments/AOT/AOT_stimuli/rescaled_final/2066_rv.mp4	0.0	437.6771249771118	1.0000109672546387
81	344.78959703445435	movie	1		243	79.0	2.5	/experiments/AOT/AOT_stimuli/rescaled_final/2066_rv.mp4	0.0	438.67713594436646	2.5003929138183594
81	345.1745328903198	pulse	1	t		79.0	2.5	/experiments/AOT/AOT_stimuli/rescaled_final/2066_rv.mp4	0.0	439.06207180023193	
81	346.7733929157257	pulse	1	t		79.0	2.5	/experiments/AOT/AOT_stimuli/rescaled_final/2066_rv.mp4	0.0	440.6609318256378	
81	347.2899899482727	fix_post	2		12	79.0	2.5	/experiments/AOT/AOT_stimuli/rescaled_final/2066_rv.mp4	0.0	441.1775288581848	0.0999610424041748
82	347.3899509906769	fix_pre	0		119	80.0	2.5	/experiments/AOT/AOT_stimuli/rescaled_final/2051_fw.mp4	0.0	441.277489900589	0.9916360378265381
82	348.37363600730896	pulse	0	t		80.0	2.5	/experiments/AOT/AOT_stimuli/rescaled_final/2051_fw.mp4	0.0	442.26117491722107	
82	348.3815870285034	movie	1		244	80.0	2.5	/experiments/AOT/AOT_stimuli/rescaled_final/2051_fw.mp4	0.0	442.2691259384155	2.508340835571289
82	349.97375202178955	pulse	1	t		80.0	2.5	/experiments/AOT/AOT_stimuli/rescaled_final/2051_fw.mp4	0.0	443.86129093170166	
82	350.8899278640747	fix_post	2		12	80.0	2.5	/experiments/AOT/AOT_stimuli/rescaled_final/2051_fw.mp4	0.0	444.7774667739868	0.1000070571899414
83	350.98993492126465	fix_pre	0		120	81.0	2.5	/experiments/AOT/AOT_stimuli/rescaled_final/0484_rv.mp4	0.0	444.87747383117676	1.0000109672546387
83	351.57337403297424	pulse	0	t		81.0	2.5	/experiments/AOT/AOT_stimuli/rescaled_final/0484_rv.mp4	0.0	445.46091294288635	
83	351.9899458885193	movie	1		247	81.0	2.5	/experiments/AOT/AOT_stimuli/rescaled_final/0484_rv.mp4	0.0	445.8774847984314	2.4999911785125732
83	353.1734790802002	pulse	1	t		81.0	2.5	/experiments/AOT/AOT_stimuli/rescaled_final/0484_rv.mp4	0.0	447.0610179901123	
83	354.48993706703186	fix_post	2		12	81.0	2.5	/experiments/AOT/AOT_stimuli/rescaled_final/0484_rv.mp4	0.0	448.37747597694397	0.09991788864135742
84	354.5898549556732	fix_pre	0		120	82.0	2.5	blank	1.0	448.4773938655853	1.000114917755127
84	354.7733910083771	pulse	0	t		82.0	2.5	blank	1.0	448.6609299182892	
84	355.58996987342834	movie	1		300	82.0	2.5	blank	1.0	449.47750878334045	2.4998881816864014
84	356.37346601486206	pulse	1	t		82.0	2.5	blank	1.0	450.26100492477417	
84	357.9733769893646	pulse	1	t		82.0	2.5	blank	1.0	451.86091589927673	
84	358.08985805511475	fix_post	2		12	82.0	2.5	blank	1.0	451.97739696502686	0.09998703002929688
85	358.18984508514404	fix_pre	0		120	83.0	2.5	/experiments/AOT/AOT_stimuli/rescaled_final/0364_rv.mp4	0.0	452.07738399505615	1.0001049041748047
85	359.18994998931885	movie	1		244	83.0	2.5	/experiments/AOT/AOT_stimuli/rescaled_final/0364_rv.mp4	0.0	453.07748889923096	2.4995720386505127
85	359.5729229450226	pulse	1	t		83.0	2.5	/experiments/AOT/AOT_stimuli/rescaled_final/0364_rv.mp4	0.0	453.4604618549347	
85	361.1733150482178	pulse	1	t		83.0	2.5	/experiments/AOT/AOT_stimuli/rescaled_final/0364_rv.mp4	0.0	455.0608539581299	
85	361.68952202796936	fix_post	2		12	83.0	2.5	/experiments/AOT/AOT_stimuli/rescaled_final/0364_rv.mp4	0.0	455.57706093788147	0.10031795501708984
87	361.78983998298645	stim	0		1716					455.67737889289856	14.299942970275879
87	362.77342104911804	pulse	0	t						456.66095995903015	
87	364.3733329772949	pulse	0	t						458.26087188720703	
87	365.97331285476685	pulse	0	t						459.86085176467896	
87	367.57335090637207	pulse	0	t						461.4608898162842	
87	369.1733570098877	pulse	0	t						463.0608959197998	
87	370.77336287498474	pulse	0	t						464.66090178489685	
87	372.37330293655396	pulse	0	t						466.26084184646606	
87	373.97330594062805	pulse	0	t						467.86084485054016	
87	375.5732789039612	pulse	0	t						469.4608178138733	
