trial_nr	onset	event_type	phase	response	nr_frames	movie_index	movie_duration	movie_file	blank	onset_abs	duration
0	0.13330817222595215	stim	0		832					144.5802080631256	7.016634941101074
0	7.1090052127838135	response	0	space						151.55590510368347	
1	7.149943113327026	stim	0		3808					151.59684300422668	31.733087062835693
1	38.87844204902649	pulse	0	t						183.32534193992615	
1	38.88303017616272	stim	1		1717					183.32993006706238	14.308424949645996
1	40.47493600845337	pulse	1	t						184.92183589935303	
1	42.07488417625427	pulse	1	t						186.52178406715393	
1	43.674840211868286	pulse	1	t						188.12174010276794	
1	45.27490520477295	pulse	1	t						189.7218050956726	
1	46.87483501434326	pulse	1	t						191.32173490524292	
1	48.47476315498352	pulse	1	t						192.92166304588318	
1	50.074846029281616	pulse	1	t						194.52174592018127	
1	51.67473101615906	pulse	1	t						196.12163090705872	
2	53.191455125808716	fix_pre	0		11	0.0	2.5	/experiments/AOT/AOT_stimuli/rescaled_final/1711_fw.mp4	0.0	197.63835501670837	0.09157896041870117
2	53.27456498146057	pulse	0	t		0.0	2.5	/experiments/AOT/AOT_stimuli/rescaled_final/1711_fw.mp4	0.0	197.72146487236023	
2	53.28303408622742	movie	1		243	0.0	2.5	/experiments/AOT/AOT_stimuli/rescaled_final/1711_fw.mp4	0.0	197.72993397712708	2.5094199180603027
2	54.8744421005249	pulse	1	t		0.0	2.5	/experiments/AOT/AOT_stimuli/rescaled_final/1711_fw.mp4	0.0	199.32134199142456	
2	55.79245400428772	fix_post	2		12	0.0	2.5	/experiments/AOT/AOT_stimuli/rescaled_final/1711_fw.mp4	0.0	200.23935389518738	0.0984489917755127
3	55.89090299606323	fix_pre	0		120	1.0	2.5	/experiments/AOT/AOT_stimuli/rescaled_final/0359_fw.mp4	0.0	200.3378028869629	1.0004520416259766
3	56.47487115859985	pulse	0	t		1.0	2.5	/experiments/AOT/AOT_stimuli/rescaled_final/0359_fw.mp4	0.0	200.9217710494995	
3	56.89135503768921	movie	1		243	1.0	2.5	/experiments/AOT/AOT_stimuli/rescaled_final/0359_fw.mp4	0.0	201.33825492858887	2.4995291233062744
3	58.07483220100403	pulse	1	t		1.0	2.5	/experiments/AOT/AOT_stimuli/rescaled_final/0359_fw.mp4	0.0	202.5217320919037	
3	59.39088416099548	fix_post	2		12	1.0	2.5	/experiments/AOT/AOT_stimuli/rescaled_final/0359_fw.mp4	0.0	203.83778405189514	0.10039305686950684
4	59.49127721786499	fix_pre	0		120	2.0	2.5	/experiments/AOT/AOT_stimuli/rescaled_final/1328_rv.mp4	0.0	203.93817710876465	1.0000548362731934
4	59.67484211921692	pulse	0	t		2.0	2.5	/experiments/AOT/AOT_stimuli/rescaled_final/1328_rv.mp4	0.0	204.12174201011658	
4	60.491332054138184	movie	1		245	2.0	2.5	/experiments/AOT/AOT_stimuli/rescaled_final/1328_rv.mp4	0.0	204.93823194503784	2.499772071838379
4	61.274813175201416	pulse	1	t		2.0	2.5	/experiments/AOT/AOT_stimuli/rescaled_final/1328_rv.mp4	0.0	205.72171306610107	
4	62.873497009277344	pulse	1	t		2.0	2.5	/experiments/AOT/AOT_stimuli/rescaled_final/1328_rv.mp4	0.0	207.320396900177	
4	62.99110412597656	fix_post	2		12	2.0	2.5	/experiments/AOT/AOT_stimuli/rescaled_final/1328_rv.mp4	0.0	207.43800401687622	0.1003868579864502
5	63.09149098396301	fix_pre	0		120	3.0	2.5	/experiments/AOT/AOT_stimuli/rescaled_final/0656_rv.mp4	0.0	207.53839087486267	0.9997930526733398
5	64.09128403663635	movie	1		246	3.0	2.5	/experiments/AOT/AOT_stimuli/rescaled_final/0656_rv.mp4	0.0	208.538183927536	2.5004470348358154
5	64.4749710559845	pulse	1	t		3.0	2.5	/experiments/AOT/AOT_stimuli/rescaled_final/0656_rv.mp4	0.0	208.92187094688416	
5	66.07473516464233	pulse	1	t		3.0	2.5	/experiments/AOT/AOT_stimuli/rescaled_final/0656_rv.mp4	0.0	210.521635055542	
5	66.59173107147217	fix_post	2		12	3.0	2.5	/experiments/AOT/AOT_stimuli/rescaled_final/0656_rv.mp4	0.0	211.03863096237183	0.09981703758239746
6	66.69154810905457	fix_pre	0		119	4.0	2.5	/experiments/AOT/AOT_stimuli/rescaled_final/0808_fw.mp4	0.0	211.13844799995422	0.991461992263794
6	67.67480421066284	pulse	0	t		4.0	2.5	/experiments/AOT/AOT_stimuli/rescaled_final/0808_fw.mp4	0.0	212.1217041015625	
6	67.68301010131836	movie	1		244	4.0	2.5	/experiments/AOT/AOT_stimuli/rescaled_final/0808_fw.mp4	0.0	212.12990999221802	2.507775068283081
6	69.2746331691742	pulse	1	t		4.0	2.5	/experiments/AOT/AOT_stimuli/rescaled_final/0808_fw.mp4	0.0	213.72153306007385	
6	70.19078516960144	fix_post	2		12	4.0	2.5	/experiments/AOT/AOT_stimuli/rescaled_final/0808_fw.mp4	0.0	214.6376850605011	0.1001729965209961
7	70.29095816612244	fix_pre	0		120	5.0	2.5	blank	1.0	214.7378580570221	1.0003459453582764
7	70.87477421760559	pulse	0	t		5.0	2.5	blank	1.0	215.32167410850525	
7	71.29130411148071	movie	1		300	5.0	2.5	blank	1.0	215.73820400238037	2.50008487701416
7	72.47476100921631	pulse	1	t		5.0	2.5	blank	1.0	216.92166090011597	
7	73.79138898849487	fix_post	2		12	5.0	2.5	blank	1.0	218.23828887939453	0.09984302520751953
8	73.89123201370239	fix_pre	0		120	6.0	2.5	/experiments/AOT/AOT_stimuli/rescaled_final/0010_rv.mp4	0.0	218.33813190460205	1.0000920295715332
8	74.07470107078552	pulse	0	t		6.0	2.5	/experiments/AOT/AOT_stimuli/rescaled_final/0010_rv.mp4	0.0	218.52160096168518	
8	74.89132404327393	movie	1		246	6.0	2.5	/experiments/AOT/AOT_stimuli/rescaled_final/0010_rv.mp4	0.0	219.33822393417358	2.5000500679016113
8	75.67472815513611	pulse	1	t		6.0	2.5	/experiments/AOT/AOT_stimuli/rescaled_final/0010_rv.mp4	0.0	220.12162804603577	
8	77.27285718917847	pulse	1	t		6.0	2.5	/experiments/AOT/AOT_stimuli/rescaled_final/0010_rv.mp4	0.0	221.71975708007812	
8	77.39137411117554	fix_post	2		12	6.0	2.5	/experiments/AOT/AOT_stimuli/rescaled_final/0010_rv.mp4	0.0	221.8382740020752	0.09952187538146973
9	77.490895986557	fix_pre	0		120	7.0	2.5	/experiments/AOT/AOT_stimuli/rescaled_final/0479_rv.mp4	0.0	221.93779587745667	1.000082015991211
9	78.49097800254822	movie	1		243	7.0	2.5	/experiments/AOT/AOT_stimuli/rescaled_final/0479_rv.mp4	0.0	222.93787789344788	2.499859094619751
9	78.87410521507263	pulse	1	t		7.0	2.5	/experiments/AOT/AOT_stimuli/rescaled_final/0479_rv.mp4	0.0	223.3210051059723	
9	80.47465801239014	pulse	1	t		7.0	2.5	/experiments/AOT/AOT_stimuli/rescaled_final/0479_rv.mp4	0.0	224.9215579032898	
9	80.99083709716797	fix_post	2		12	7.0	2.5	/experiments/AOT/AOT_stimuli/rescaled_final/0479_rv.mp4	0.0	225.43773698806763	0.10035490989685059
10	81.09119200706482	fix_pre	0		119	8.0	2.5	/experiments/AOT/AOT_stimuli/rescaled_final/1793_fw.mp4	0.0	225.53809189796448	0.991692066192627
10	82.07473421096802	pulse	0	t		8.0	2.5	/experiments/AOT/AOT_stimuli/rescaled_final/1793_fw.mp4	0.0	226.52163410186768	
10	82.08288407325745	movie	1		247	8.0	2.5	/experiments/AOT/AOT_stimuli/rescaled_final/1793_fw.mp4	0.0	226.5297839641571	2.508239984512329
10	83.67426800727844	pulse	1	t		8.0	2.5	/experiments/AOT/AOT_stimuli/rescaled_final/1793_fw.mp4	0.0	228.1211678981781	
10	84.59112405776978	fix_post	2		12	8.0	2.5	/experiments/AOT/AOT_stimuli/rescaled_final/1793_fw.mp4	0.0	229.03802394866943	0.10009098052978516
11	84.69121503829956	fix_pre	0		120	9.0	2.5	/experiments/AOT/AOT_stimuli/rescaled_final/0381_rv.mp4	0.0	229.13811492919922	0.9999160766601562
11	85.27460312843323	pulse	0	t		9.0	2.5	/experiments/AOT/AOT_stimuli/rescaled_final/0381_rv.mp4	0.0	229.72150301933289	
11	85.69113111495972	movie	1		247	9.0	2.5	/experiments/AOT/AOT_stimuli/rescaled_final/0381_rv.mp4	0.0	230.13803100585938	2.5000410079956055
11	86.87472414970398	pulse	1	t		9.0	2.5	/experiments/AOT/AOT_stimuli/rescaled_final/0381_rv.mp4	0.0	231.32162404060364	
11	88.19117212295532	fix_post	2		12	9.0	2.5	/experiments/AOT/AOT_stimuli/rescaled_final/0381_rv.mp4	0.0	232.63807201385498	0.10020709037780762
12	88.29137921333313	fix_pre	0		120	10.0	2.5	/experiments/AOT/AOT_stimuli/rescaled_final/1076_fw.mp4	0.0	232.7382791042328	0.9997909069061279
12	88.4746561050415	pulse	0	t		10.0	2.5	/experiments/AOT/AOT_stimuli/rescaled_final/1076_fw.mp4	0.0	232.92155599594116	
12	89.29117012023926	movie	1		242	10.0	2.5	/experiments/AOT/AOT_stimuli/rescaled_final/1076_fw.mp4	0.0	233.73807001113892	2.4999420642852783
12	90.07462120056152	pulse	1	t		10.0	2.5	/experiments/AOT/AOT_stimuli/rescaled_final/1076_fw.mp4	0.0	234.52152109146118	
12	91.67287707328796	pulse	1	t		10.0	2.5	/experiments/AOT/AOT_stimuli/rescaled_final/1076_fw.mp4	0.0	236.11977696418762	
12	91.79111218452454	fix_post	2		12	10.0	2.5	/experiments/AOT/AOT_stimuli/rescaled_final/1076_fw.mp4	0.0	236.2380120754242	0.09997296333312988
13	91.89108514785767	fix_pre	0		120	11.0	2.5	/experiments/AOT/AOT_stimuli/rescaled_final/1498_rv.mp4	0.0	236.33798503875732	1.0000598430633545
13	92.89114499092102	movie	1		243	11.0	2.5	/experiments/AOT/AOT_stimuli/rescaled_final/1498_rv.mp4	0.0	237.33804488182068	2.499556064605713
13	93.275808095932	pulse	1	t		11.0	2.5	/experiments/AOT/AOT_stimuli/rescaled_final/1498_rv.mp4	0.0	237.72270798683167	
13	94.87461400032043	pulse	1	t		11.0	2.5	/experiments/AOT/AOT_stimuli/rescaled_final/1498_rv.mp4	0.0	239.3215138912201	
13	95.39070105552673	fix_post	2		12	11.0	2.5	/experiments/AOT/AOT_stimuli/rescaled_final/1498_rv.mp4	0.0	239.8376009464264	0.10045313835144043
14	95.49115419387817	fix_pre	0		119	12.0	2.5	/experiments/AOT/AOT_stimuli/rescaled_final/0371_rv.mp4	0.0	239.93805408477783	0.9916448593139648
14	96.47463417053223	pulse	0	t		12.0	2.5	/experiments/AOT/AOT_stimuli/rescaled_final/0371_rv.mp4	0.0	240.92153406143188	
14	96.48279905319214	movie	1		245	12.0	2.5	/experiments/AOT/AOT_stimuli/rescaled_final/0371_rv.mp4	0.0	240.9296989440918	2.5082859992980957
14	98.07412314414978	pulse	1	t		12.0	2.5	/experiments/AOT/AOT_stimuli/rescaled_final/0371_rv.mp4	0.0	242.52102303504944	
14	98.99108505249023	fix_post	2		12	12.0	2.5	/experiments/AOT/AOT_stimuli/rescaled_final/0371_rv.mp4	0.0	243.4379849433899	0.10000801086425781
15	99.09109306335449	fix_pre	0		120	13.0	2.5	blank	1.0	243.53799295425415	0.9999940395355225
15	99.67464399337769	pulse	0	t		13.0	2.5	blank	1.0	244.12154388427734	
15	100.09108710289001	movie	1		300	13.0	2.5	blank	1.0	244.53798699378967	2.4999589920043945
15	101.27468705177307	pulse	1	t		13.0	2.5	blank	1.0	245.72158694267273	
15	102.59104609489441	fix_post	2		12	13.0	2.5	blank	1.0	247.03794598579407	0.10002398490905762
16	102.69107007980347	fix_pre	0		120	14.0	2.5	/experiments/AOT/AOT_stimuli/rescaled_final/1622_fw.mp4	0.0	247.13796997070312	1.0000269412994385
16	102.87466812133789	pulse	0	t		14.0	2.5	/experiments/AOT/AOT_stimuli/rescaled_final/1622_fw.mp4	0.0	247.32156801223755	
16	103.6910970211029	movie	1		243	14.0	2.5	/experiments/AOT/AOT_stimuli/rescaled_final/1622_fw.mp4	0.0	248.13799691200256	2.4999401569366455
16	104.47462916374207	pulse	1	t		14.0	2.5	/experiments/AOT/AOT_stimuli/rescaled_final/1622_fw.mp4	0.0	248.92152905464172	
16	106.07291007041931	pulse	1	t		14.0	2.5	/experiments/AOT/AOT_stimuli/rescaled_final/1622_fw.mp4	0.0	250.51980996131897	
16	106.19103717803955	fix_post	2		12	14.0	2.5	/experiments/AOT/AOT_stimuli/rescaled_final/1622_fw.mp4	0.0	250.6379370689392	0.10007286071777344
17	106.29111003875732	fix_pre	0		120	15.0	2.5	/experiments/AOT/AOT_stimuli/rescaled_final/0620_fw.mp4	0.0	250.73800992965698	0.9999339580535889
17	107.29104399681091	movie	1		244	15.0	2.5	/experiments/AOT/AOT_stimuli/rescaled_final/0620_fw.mp4	0.0	251.73794388771057	2.500058174133301
17	107.67440104484558	pulse	1	t		15.0	2.5	/experiments/AOT/AOT_stimuli/rescaled_final/0620_fw.mp4	0.0	252.12130093574524	
17	109.2745430469513	pulse	1	t		15.0	2.5	/experiments/AOT/AOT_stimuli/rescaled_final/0620_fw.mp4	0.0	253.72144293785095	
17	109.79110217094421	fix_post	2		12	15.0	2.5	/experiments/AOT/AOT_stimuli/rescaled_final/0620_fw.mp4	0.0	254.23800206184387	0.10003399848937988
18	109.8911361694336	fix_pre	0		119	16.0	2.5	/experiments/AOT/AOT_stimuli/rescaled_final/1138_rv.mp4	0.0	254.33803606033325	0.9916789531707764
18	110.87471103668213	pulse	0	t		16.0	2.5	/experiments/AOT/AOT_stimuli/rescaled_final/1138_rv.mp4	0.0	255.3216109275818	
18	110.88281512260437	movie	1		246	16.0	2.5	/experiments/AOT/AOT_stimuli/rescaled_final/1138_rv.mp4	0.0	255.32971501350403	2.508225917816162
18	112.47403621673584	pulse	1	t		16.0	2.5	/experiments/AOT/AOT_stimuli/rescaled_final/1138_rv.mp4	0.0	256.9209361076355	
18	113.39104104042053	fix_post	2		12	16.0	2.5	/experiments/AOT/AOT_stimuli/rescaled_final/1138_rv.mp4	0.0	257.8379409313202	0.10012316703796387
19	113.4911642074585	fix_pre	0		120	17.0	2.5	/experiments/AOT/AOT_stimuli/rescaled_final/1285_rv.mp4	0.0	257.93806409835815	0.9999179840087891
19	114.07456612586975	pulse	0	t		17.0	2.5	/experiments/AOT/AOT_stimuli/rescaled_final/1285_rv.mp4	0.0	258.5214660167694	
19	114.49108219146729	movie	1		245	17.0	2.5	/experiments/AOT/AOT_stimuli/rescaled_final/1285_rv.mp4	0.0	258.93798208236694	2.5000529289245605
19	115.67449712753296	pulse	1	t		17.0	2.5	/experiments/AOT/AOT_stimuli/rescaled_final/1285_rv.mp4	0.0	260.1213970184326	
19	116.99113512039185	fix_post	2		12	17.0	2.5	/experiments/AOT/AOT_stimuli/rescaled_final/1285_rv.mp4	0.0	261.4380350112915	0.09992694854736328
20	117.09106206893921	fix_pre	0		120	18.0	2.5	/experiments/AOT/AOT_stimuli/rescaled_final/1155_rv.mp4	0.0	261.53796195983887	1.0000460147857666
20	117.27459716796875	pulse	0	t		18.0	2.5	/experiments/AOT/AOT_stimuli/rescaled_final/1155_rv.mp4	0.0	261.7214970588684	
20	118.09110808372498	movie	1		244	18.0	2.5	/experiments/AOT/AOT_stimuli/rescaled_final/1155_rv.mp4	0.0	262.53800797462463	2.5003230571746826
20	118.87455201148987	pulse	1	t		18.0	2.5	/experiments/AOT/AOT_stimuli/rescaled_final/1155_rv.mp4	0.0	263.3214519023895	
20	120.47345018386841	pulse	1	t		18.0	2.5	/experiments/AOT/AOT_stimuli/rescaled_final/1155_rv.mp4	0.0	264.92035007476807	
20	120.59143114089966	fix_post	2		12	18.0	2.5	/experiments/AOT/AOT_stimuli/rescaled_final/1155_rv.mp4	0.0	265.0383310317993	0.09962797164916992
21	120.69105911254883	fix_pre	0		120	19.0	2.5	/experiments/AOT/AOT_stimuli/rescaled_final/0372_rv.mp4	0.0	265.1379590034485	1.0000019073486328
21	121.69106101989746	movie	1		243	19.0	2.5	/experiments/AOT/AOT_stimuli/rescaled_final/0372_rv.mp4	0.0	266.1379609107971	2.5004050731658936
21	122.07554912567139	pulse	1	t		19.0	2.5	/experiments/AOT/AOT_stimuli/rescaled_final/0372_rv.mp4	0.0	266.52244901657104	
21	123.67447805404663	pulse	1	t		19.0	2.5	/experiments/AOT/AOT_stimuli/rescaled_final/0372_rv.mp4	0.0	268.1213779449463	
21	124.19146609306335	fix_post	2		12	19.0	2.5	/experiments/AOT/AOT_stimuli/rescaled_final/0372_rv.mp4	0.0	268.638365983963	0.09961700439453125
22	124.29108309745789	fix_pre	0		119	20.0	2.5	blank	1.0	268.73798298835754	0.9915308952331543
22	125.27451920509338	pulse	0	t		20.0	2.5	blank	1.0	269.72141909599304	
22	125.28261399269104	movie	1		301	20.0	2.5	blank	1.0	269.7295138835907	2.5083110332489014
22	126.87442803382874	pulse	1	t		20.0	2.5	blank	1.0	271.3213279247284	
22	127.79092502593994	fix_post	2		12	20.0	2.5	blank	1.0	272.2378249168396	0.100006103515625
23	127.89093112945557	fix_pre	0		120	21.0	2.5	/experiments/AOT/AOT_stimuli/rescaled_final/1214_rv.mp4	0.0	272.3378310203552	1.0000219345092773
23	128.47455310821533	pulse	0	t		21.0	2.5	/experiments/AOT/AOT_stimuli/rescaled_final/1214_rv.mp4	0.0	272.921452999115	
23	128.89095306396484	movie	1		243	21.0	2.5	/experiments/AOT/AOT_stimuli/rescaled_final/1214_rv.mp4	0.0	273.3378529548645	2.5000100135803223
23	130.07454419136047	pulse	1	t		21.0	2.5	/experiments/AOT/AOT_stimuli/rescaled_final/1214_rv.mp4	0.0	274.52144408226013	
23	131.39096307754517	fix_post	2		12	21.0	2.5	/experiments/AOT/AOT_stimuli/rescaled_final/1214_rv.mp4	0.0	275.8378629684448	0.10000109672546387
24	131.49096417427063	fix_pre	0		120	22.0	2.5	/experiments/AOT/AOT_stimuli/rescaled_final/1055_fw.mp4	0.0	275.9378640651703	1.0000278949737549
24	131.67458319664001	pulse	0	t		22.0	2.5	/experiments/AOT/AOT_stimuli/rescaled_final/1055_fw.mp4	0.0	276.1214830875397	
24	132.49099206924438	movie	1		244	22.0	2.5	/experiments/AOT/AOT_stimuli/rescaled_final/1055_fw.mp4	0.0	276.93789196014404	2.50022292137146
24	133.2739930152893	pulse	1	t		22.0	2.5	/experiments/AOT/AOT_stimuli/rescaled_final/1055_fw.mp4	0.0	277.72089290618896	
24	134.87273621559143	pulse	1	t		22.0	2.5	/experiments/AOT/AOT_stimuli/rescaled_final/1055_fw.mp4	0.0	279.3196361064911	
24	134.99121499061584	fix_post	2		12	22.0	2.5	/experiments/AOT/AOT_stimuli/rescaled_final/1055_fw.mp4	0.0	279.4381148815155	0.09991216659545898
25	135.0911271572113	fix_pre	0		120	23.0	2.5	/experiments/AOT/AOT_stimuli/rescaled_final/1145_fw.mp4	0.0	279.53802704811096	0.999809980392456
25	136.09093713760376	movie	1		246	23.0	2.5	/experiments/AOT/AOT_stimuli/rescaled_final/1145_fw.mp4	0.0	280.5378370285034	2.500025987625122
25	136.4738790988922	pulse	1	t		23.0	2.5	/experiments/AOT/AOT_stimuli/rescaled_final/1145_fw.mp4	0.0	280.92077898979187	
25	138.07450604438782	pulse	1	t		23.0	2.5	/experiments/AOT/AOT_stimuli/rescaled_final/1145_fw.mp4	0.0	282.5214059352875	
25	138.59096312522888	fix_post	2		12	23.0	2.5	/experiments/AOT/AOT_stimuli/rescaled_final/1145_fw.mp4	0.0	283.03786301612854	0.10006189346313477
26	138.69102501869202	fix_pre	0		119	24.0	2.5	/experiments/AOT/AOT_stimuli/rescaled_final/2004_rv.mp4	0.0	283.1379249095917	0.9916341304779053
26	139.67446208000183	pulse	0	t		24.0	2.5	/experiments/AOT/AOT_stimuli/rescaled_final/2004_rv.mp4	0.0	284.1213619709015	
26	139.68265914916992	movie	1		245	24.0	2.5	/experiments/AOT/AOT_stimuli/rescaled_final/2004_rv.mp4	0.0	284.1295590400696	2.5082268714904785
26	141.27377200126648	pulse	1	t		24.0	2.5	/experiments/AOT/AOT_stimuli/rescaled_final/2004_rv.mp4	0.0	285.72067189216614	
26	142.1908860206604	fix_post	2		12	24.0	2.5	/experiments/AOT/AOT_stimuli/rescaled_final/2004_rv.mp4	0.0	286.63778591156006	0.09995603561401367
27	142.2908420562744	fix_pre	0		120	25.0	2.5	/experiments/AOT/AOT_stimuli/rescaled_final/1214_rv.mp4	0.0	286.7377419471741	1.0000381469726562
27	142.8743600845337	pulse	0	t		25.0	2.5	/experiments/AOT/AOT_stimuli/rescaled_final/1214_rv.mp4	0.0	287.32125997543335	
27	143.29088020324707	movie	1		243	25.0	2.5	/experiments/AOT/AOT_stimuli/rescaled_final/1214_rv.mp4	0.0	287.73778009414673	2.4999849796295166
27	144.47441601753235	pulse	1	t		25.0	2.5	/experiments/AOT/AOT_stimuli/rescaled_final/1214_rv.mp4	0.0	288.921315908432	
27	145.7908651828766	fix_post	2		12	25.0	2.5	/experiments/AOT/AOT_stimuli/rescaled_final/1214_rv.mp4	0.0	290.23776507377625	0.10001397132873535
28	145.89087915420532	fix_pre	0		120	26.0	2.5	blank	1.0	290.337779045105	1.000035047531128
28	146.07436299324036	pulse	0	t		26.0	2.5	blank	1.0	290.52126288414	
28	146.89091420173645	movie	1		300	26.0	2.5	blank	1.0	291.3378140926361	2.4999959468841553
28	147.67433714866638	pulse	1	t		26.0	2.5	blank	1.0	292.12123703956604	
28	149.27433609962463	pulse	1	t		26.0	2.5	blank	1.0	293.7212359905243	
28	149.3909101486206	fix_post	2		12	26.0	2.5	blank	1.0	293.83781003952026	0.09998703002929688
29	149.4908971786499	fix_pre	0		120	27.0	2.5	/experiments/AOT/AOT_stimuli/rescaled_final/1695_fw.mp4	0.0	293.93779706954956	1.0000479221343994
29	150.4909451007843	movie	1		244	27.0	2.5	/experiments/AOT/AOT_stimuli/rescaled_final/1695_fw.mp4	0.0	294.93784499168396	2.499505043029785
29	150.8739631175995	pulse	1	t		27.0	2.5	/experiments/AOT/AOT_stimuli/rescaled_final/1695_fw.mp4	0.0	295.32086300849915	
29	152.47430801391602	pulse	1	t		27.0	2.5	/experiments/AOT/AOT_stimuli/rescaled_final/1695_fw.mp4	0.0	296.9212079048157	
29	152.9904501438141	fix_post	2		12	27.0	2.5	/experiments/AOT/AOT_stimuli/rescaled_final/1695_fw.mp4	0.0	297.43735003471375	0.10044598579406738
30	153.09089612960815	fix_pre	0		119	28.0	2.5	/experiments/AOT/AOT_stimuli/rescaled_final/1822_fw.mp4	0.0	297.5377960205078	0.9916019439697266
30	154.07437300682068	pulse	0	t		28.0	2.5	/experiments/AOT/AOT_stimuli/rescaled_final/1822_fw.mp4	0.0	298.52127289772034	
30	154.08249807357788	movie	1		245	28.0	2.5	/experiments/AOT/AOT_stimuli/rescaled_final/1822_fw.mp4	0.0	298.52939796447754	2.5084569454193115
30	155.67424321174622	pulse	1	t		28.0	2.5	/experiments/AOT/AOT_stimuli/rescaled_final/1822_fw.mp4	0.0	300.1211431026459	
30	156.5909550189972	fix_post	2		12	28.0	2.5	/experiments/AOT/AOT_stimuli/rescaled_final/1822_fw.mp4	0.0	301.03785490989685	0.09990715980529785
31	156.6908621788025	fix_pre	0		120	29.0	2.5	/experiments/AOT/AOT_stimuli/rescaled_final/0226_rv.mp4	0.0	301.13776206970215	0.9999678134918213
31	157.27438306808472	pulse	0	t		29.0	2.5	/experiments/AOT/AOT_stimuli/rescaled_final/0226_rv.mp4	0.0	301.7212829589844	
31	157.6908299922943	movie	1		243	29.0	2.5	/experiments/AOT/AOT_stimuli/rescaled_final/0226_rv.mp4	0.0	302.13772988319397	2.500042200088501
31	158.87443017959595	pulse	1	t		29.0	2.5	/experiments/AOT/AOT_stimuli/rescaled_final/0226_rv.mp4	0.0	303.3213300704956	
31	160.1908721923828	fix_post	2		12	29.0	2.5	/experiments/AOT/AOT_stimuli/rescaled_final/0226_rv.mp4	0.0	304.63777208328247	0.09989786148071289
32	160.29077005386353	fix_pre	0		120	30.0	2.5	/experiments/AOT/AOT_stimuli/rescaled_final/2133_fw.mp4	0.0	304.7376699447632	1.0000801086425781
32	160.47433304786682	pulse	0	t		30.0	2.5	/experiments/AOT/AOT_stimuli/rescaled_final/2133_fw.mp4	0.0	304.9212329387665	
32	161.2908501625061	movie	1		242	30.0	2.5	/experiments/AOT/AOT_stimuli/rescaled_final/2133_fw.mp4	0.0	305.73775005340576	2.5000219345092773
32	162.0743670463562	pulse	1	t		30.0	2.5	/experiments/AOT/AOT_stimuli/rescaled_final/2133_fw.mp4	0.0	306.52126693725586	
32	163.67266702651978	pulse	1	t		30.0	2.5	/experiments/AOT/AOT_stimuli/rescaled_final/2133_fw.mp4	0.0	308.11956691741943	
32	163.79087209701538	fix_post	2		12	30.0	2.5	/experiments/AOT/AOT_stimuli/rescaled_final/2133_fw.mp4	0.0	308.23777198791504	0.09992289543151855
33	163.8907949924469	fix_pre	0		120	31.0	2.5	/experiments/AOT/AOT_stimuli/rescaled_final/1456_fw.mp4	0.0	308.33769488334656	0.9999730587005615
33	164.89076805114746	movie	1		243	31.0	2.5	/experiments/AOT/AOT_stimuli/rescaled_final/1456_fw.mp4	0.0	309.3376679420471	2.5000579357147217
33	165.27402114868164	pulse	1	t		31.0	2.5	/experiments/AOT/AOT_stimuli/rescaled_final/1456_fw.mp4	0.0	309.7209210395813	
33	166.87429904937744	pulse	1	t		31.0	2.5	/experiments/AOT/AOT_stimuli/rescaled_final/1456_fw.mp4	0.0	311.3211989402771	
33	167.39082598686218	fix_post	2		12	31.0	2.5	/experiments/AOT/AOT_stimuli/rescaled_final/1456_fw.mp4	0.0	311.83772587776184	0.1005401611328125
34	167.491366147995	fix_pre	0		119	32.0	2.5	/experiments/AOT/AOT_stimuli/rescaled_final/1360_rv.mp4	0.0	311.93826603889465	0.9910750389099121
34	168.47437715530396	pulse	0	t		32.0	2.5	/experiments/AOT/AOT_stimuli/rescaled_final/1360_rv.mp4	0.0	312.9212770462036	
34	168.4824411869049	movie	1		245	32.0	2.5	/experiments/AOT/AOT_stimuli/rescaled_final/1360_rv.mp4	0.0	312.92934107780457	2.5079948902130127
34	170.07438015937805	pulse	1	t		32.0	2.5	/experiments/AOT/AOT_stimuli/rescaled_final/1360_rv.mp4	0.0	314.5212800502777	
34	170.99043607711792	fix_post	2		12	32.0	2.5	/experiments/AOT/AOT_stimuli/rescaled_final/1360_rv.mp4	0.0	315.4373359680176	0.10033702850341797
35	171.09077310562134	fix_pre	0		120	33.0	2.5	blank	1.0	315.537672996521	0.9999740123748779
35	171.6742811203003	pulse	0	t		33.0	2.5	blank	1.0	316.12118101119995	
35	172.09074711799622	movie	1		300	33.0	2.5	blank	1.0	316.5376470088959	2.4999918937683105
35	173.27434515953064	pulse	1	t		33.0	2.5	blank	1.0	317.7212450504303	
35	174.59073901176453	fix_post	2		12	33.0	2.5	blank	1.0	319.0376389026642	0.09956598281860352
36	174.69030499458313	fix_pre	0		120	34.0	2.5	/experiments/AOT/AOT_stimuli/rescaled_final/0034_fw.mp4	0.0	319.1372048854828	1.0005090236663818
36	174.87431621551514	pulse	0	t		34.0	2.5	/experiments/AOT/AOT_stimuli/rescaled_final/0034_fw.mp4	0.0	319.3212161064148	
36	175.6908140182495	movie	1		244	34.0	2.5	/experiments/AOT/AOT_stimuli/rescaled_final/0034_fw.mp4	0.0	320.13771390914917	2.499906063079834
36	176.47426915168762	pulse	1	t		34.0	2.5	/experiments/AOT/AOT_stimuli/rescaled_final/0034_fw.mp4	0.0	320.9211690425873	
36	178.07267904281616	pulse	1	t		34.0	2.5	/experiments/AOT/AOT_stimuli/rescaled_final/0034_fw.mp4	0.0	322.5195789337158	
36	178.19072008132935	fix_post	2		12	34.0	2.5	/experiments/AOT/AOT_stimuli/rescaled_final/0034_fw.mp4	0.0	322.637619972229	0.10057306289672852
37	178.29129314422607	fix_pre	0		120	35.0	2.5	/experiments/AOT/AOT_stimuli/rescaled_final/0672_rv.mp4	0.0	322.73819303512573	0.9994359016418457
37	179.29072904586792	movie	1		244	35.0	2.5	/experiments/AOT/AOT_stimuli/rescaled_final/0672_rv.mp4	0.0	323.7376289367676	2.500014066696167
37	179.67368817329407	pulse	1	t		35.0	2.5	/experiments/AOT/AOT_stimuli/rescaled_final/0672_rv.mp4	0.0	324.1205880641937	
37	181.27418303489685	pulse	1	t		35.0	2.5	/experiments/AOT/AOT_stimuli/rescaled_final/0672_rv.mp4	0.0	325.7210829257965	
37	181.7907431125641	fix_post	2		12	35.0	2.5	/experiments/AOT/AOT_stimuli/rescaled_final/0672_rv.mp4	0.0	326.23764300346375	0.10019993782043457
38	181.89094305038452	fix_pre	0		119	36.0	2.5	/experiments/AOT/AOT_stimuli/rescaled_final/1293_fw.mp4	0.0	326.3378429412842	0.991400957107544
38	182.87427020072937	pulse	0	t		36.0	2.5	/experiments/AOT/AOT_stimuli/rescaled_final/1293_fw.mp4	0.0	327.321170091629	
38	182.88234400749207	movie	1		244	36.0	2.5	/experiments/AOT/AOT_stimuli/rescaled_final/1293_fw.mp4	0.0	327.3292438983917	2.5083980560302734
38	184.47460508346558	pulse	1	t		36.0	2.5	/experiments/AOT/AOT_stimuli/rescaled_final/1293_fw.mp4	0.0	328.92150497436523	
38	185.39074206352234	fix_post	2		12	36.0	2.5	/experiments/AOT/AOT_stimuli/rescaled_final/1293_fw.mp4	0.0	329.837641954422	0.10000300407409668
39	185.49074506759644	fix_pre	0		120	37.0	2.5	/experiments/AOT/AOT_stimuli/rescaled_final/2045_fw.mp4	0.0	329.9376449584961	1.0000629425048828
39	186.07412719726562	pulse	0	t		37.0	2.5	/experiments/AOT/AOT_stimuli/rescaled_final/2045_fw.mp4	0.0	330.5210270881653	
39	186.49080801010132	movie	1		244	37.0	2.5	/experiments/AOT/AOT_stimuli/rescaled_final/2045_fw.mp4	0.0	330.937707901001	2.4994921684265137
39	187.67417120933533	pulse	1	t		37.0	2.5	/experiments/AOT/AOT_stimuli/rescaled_final/2045_fw.mp4	0.0	332.121071100235	
39	188.99030017852783	fix_post	2		12	37.0	2.5	/experiments/AOT/AOT_stimuli/rescaled_final/2045_fw.mp4	0.0	333.4372000694275	0.10001087188720703
40	189.09031105041504	fix_pre	0		120	38.0	2.5	/experiments/AOT/AOT_stimuli/rescaled_final/1144_fw.mp4	0.0	333.5372109413147	1.0000450611114502
40	189.2741961479187	pulse	0	t		38.0	2.5	/experiments/AOT/AOT_stimuli/rescaled_final/1144_fw.mp4	0.0	333.72109603881836	
40	190.0903561115265	movie	1		243	38.0	2.5	/experiments/AOT/AOT_stimuli/rescaled_final/1144_fw.mp4	0.0	334.53725600242615	2.500417947769165
40	190.874361038208	pulse	1	t		38.0	2.5	/experiments/AOT/AOT_stimuli/rescaled_final/1144_fw.mp4	0.0	335.32126092910767	
40	192.4726459980011	pulse	1	t		38.0	2.5	/experiments/AOT/AOT_stimuli/rescaled_final/1144_fw.mp4	0.0	336.91954588890076	
40	192.59077405929565	fix_post	2		12	38.0	2.5	/experiments/AOT/AOT_stimuli/rescaled_final/1144_fw.mp4	0.0	337.0376739501953	0.09994101524353027
41	192.69071507453918	fix_pre	0		120	39.0	2.5	/experiments/AOT/AOT_stimuli/rescaled_final/1218_rv.mp4	0.0	337.13761496543884	0.999932050704956
41	193.69064712524414	movie	1		244	39.0	2.5	/experiments/AOT/AOT_stimuli/rescaled_final/1218_rv.mp4	0.0	338.1375470161438	2.5
41	194.07530808448792	pulse	1	t		39.0	2.5	/experiments/AOT/AOT_stimuli/rescaled_final/1218_rv.mp4	0.0	338.5222079753876	
41	195.6741600036621	pulse	1	t		39.0	2.5	/experiments/AOT/AOT_stimuli/rescaled_final/1218_rv.mp4	0.0	340.12105989456177	
41	196.19064712524414	fix_post	2		12	39.0	2.5	/experiments/AOT/AOT_stimuli/rescaled_final/1218_rv.mp4	0.0	340.6375470161438	0.09990096092224121
42	196.29054808616638	fix_pre	0		119	40.0	2.5	/experiments/AOT/AOT_stimuli/rescaled_final/0672_fw.mp4	0.0	340.73744797706604	0.9917778968811035
42	197.27410507202148	pulse	0	t		40.0	2.5	/experiments/AOT/AOT_stimuli/rescaled_final/0672_fw.mp4	0.0	341.72100496292114	
42	197.28232598304749	movie	1		245	40.0	2.5	/experiments/AOT/AOT_stimuli/rescaled_final/0672_fw.mp4	0.0	341.72922587394714	2.508261203765869
42	198.87387013435364	pulse	1	t		40.0	2.5	/experiments/AOT/AOT_stimuli/rescaled_final/0672_fw.mp4	0.0	343.3207700252533	
42	199.79058718681335	fix_post	2		12	40.0	2.5	/experiments/AOT/AOT_stimuli/rescaled_final/0672_fw.mp4	0.0	344.237487077713	0.1000518798828125
43	199.89063906669617	fix_pre	0		120	41.0	2.5	/experiments/AOT/AOT_stimuli/rescaled_final/1328_rv.mp4	0.0	344.3375389575958	0.9999570846557617
43	200.47420620918274	pulse	0	t		41.0	2.5	/experiments/AOT/AOT_stimuli/rescaled_final/1328_rv.mp4	0.0	344.9211061000824	
43	200.89059615135193	movie	1		247	41.0	2.5	/experiments/AOT/AOT_stimuli/rescaled_final/1328_rv.mp4	0.0	345.3374960422516	2.499980926513672
43	202.07417798042297	pulse	1	t		41.0	2.5	/experiments/AOT/AOT_stimuli/rescaled_final/1328_rv.mp4	0.0	346.52107787132263	
43	203.3905770778656	fix_post	2		12	41.0	2.5	/experiments/AOT/AOT_stimuli/rescaled_final/1328_rv.mp4	0.0	347.83747696876526	0.09999513626098633
44	203.4905722141266	fix_pre	0		120	42.0	2.5	blank	1.0	347.93747210502625	1.0
44	203.6740481853485	pulse	0	t		42.0	2.5	blank	1.0	348.12094807624817	
44	204.4905722141266	movie	1		300	42.0	2.5	blank	1.0	348.93747210502625	2.500067949295044
44	205.27409720420837	pulse	1	t		42.0	2.5	blank	1.0	349.72099709510803	
44	206.87404608726501	pulse	1	t		42.0	2.5	blank	1.0	351.3209459781647	
44	206.99064016342163	fix_post	2		12	42.0	2.5	blank	1.0	351.4375400543213	0.09949493408203125
45	207.09013509750366	fix_pre	0		120	43.0	2.5	/experiments/AOT/AOT_stimuli/rescaled_final/1348_fw.mp4	0.0	351.5370349884033	1.0004301071166992
45	208.09056520462036	movie	1		243	43.0	2.5	/experiments/AOT/AOT_stimuli/rescaled_final/1348_fw.mp4	0.0	352.53746509552	2.4999749660491943
45	208.473806142807	pulse	1	t		43.0	2.5	/experiments/AOT/AOT_stimuli/rescaled_final/1348_fw.mp4	0.0	352.92070603370667	
45	210.07414412498474	pulse	1	t		43.0	2.5	/experiments/AOT/AOT_stimuli/rescaled_final/1348_fw.mp4	0.0	354.5210440158844	
45	210.59054017066956	fix_post	2		12	43.0	2.5	/experiments/AOT/AOT_stimuli/rescaled_final/1348_fw.mp4	0.0	355.0374400615692	0.10004687309265137
46	210.6905870437622	fix_pre	0		119	44.0	2.5	/experiments/AOT/AOT_stimuli/rescaled_final/1041_fw.mp4	0.0	355.13748693466187	0.9916510581970215
46	211.67405104637146	pulse	0	t		44.0	2.5	/experiments/AOT/AOT_stimuli/rescaled_final/1041_fw.mp4	0.0	356.1209509372711	
46	211.68223810195923	movie	1		244	44.0	2.5	/experiments/AOT/AOT_stimuli/rescaled_final/1041_fw.mp4	0.0	356.1291379928589	2.508380889892578
46	213.2735161781311	pulse	1	t		44.0	2.5	/experiments/AOT/AOT_stimuli/rescaled_final/1041_fw.mp4	0.0	357.72041606903076	
46	214.1906189918518	fix_post	2		12	44.0	2.5	/experiments/AOT/AOT_stimuli/rescaled_final/1041_fw.mp4	0.0	358.63751888275146	0.09995222091674805
47	214.29057121276855	fix_pre	0		120	45.0	2.5	/experiments/AOT/AOT_stimuli/rescaled_final/0948_fw.mp4	0.0	358.7374711036682	0.9999828338623047
47	214.87399101257324	pulse	0	t		45.0	2.5	/experiments/AOT/AOT_stimuli/rescaled_final/0948_fw.mp4	0.0	359.3208909034729	
47	215.29055404663086	movie	1		243	45.0	2.5	/experiments/AOT/AOT_stimuli/rescaled_final/0948_fw.mp4	0.0	359.7374539375305	2.49953293800354
47	216.47413420677185	pulse	1	t		45.0	2.5	/experiments/AOT/AOT_stimuli/rescaled_final/0948_fw.mp4	0.0	360.9210340976715	
47	217.7900869846344	fix_post	2		12	45.0	2.5	/experiments/AOT/AOT_stimuli/rescaled_final/0948_fw.mp4	0.0	362.23698687553406	0.10041522979736328
48	217.89050221443176	fix_pre	0		120	46.0	2.5	/experiments/AOT/AOT_stimuli/rescaled_final/2016_rv.mp4	0.0	362.3374021053314	1.0000128746032715
48	218.0740351676941	pulse	0	t		46.0	2.5	/experiments/AOT/AOT_stimuli/rescaled_final/2016_rv.mp4	0.0	362.52093505859375	
48	218.89051508903503	movie	1		244	46.0	2.5	/experiments/AOT/AOT_stimuli/rescaled_final/2016_rv.mp4	0.0	363.3374149799347	2.499967098236084
48	219.67406511306763	pulse	1	t		46.0	2.5	/experiments/AOT/AOT_stimuli/rescaled_final/2016_rv.mp4	0.0	364.1209650039673	
48	221.27243518829346	pulse	1	t		46.0	2.5	/experiments/AOT/AOT_stimuli/rescaled_final/2016_rv.mp4	0.0	365.7193350791931	
48	221.39048218727112	fix_post	2		12	46.0	2.5	/experiments/AOT/AOT_stimuli/rescaled_final/2016_rv.mp4	0.0	365.8373820781708	0.10001397132873535
49	221.49049615859985	fix_pre	0		120	47.0	2.5	/experiments/AOT/AOT_stimuli/rescaled_final/1285_rv.mp4	0.0	365.9373960494995	1.0000250339508057
49	222.49052119255066	movie	1		245	47.0	2.5	/experiments/AOT/AOT_stimuli/rescaled_final/1285_rv.mp4	0.0	366.9374210834503	2.5000197887420654
49	222.8737931251526	pulse	1	t		47.0	2.5	/experiments/AOT/AOT_stimuli/rescaled_final/1285_rv.mp4	0.0	367.32069301605225	
49	224.47404599189758	pulse	1	t		47.0	2.5	/experiments/AOT/AOT_stimuli/rescaled_final/1285_rv.mp4	0.0	368.92094588279724	
49	224.99054098129272	fix_post	2		12	47.0	2.5	/experiments/AOT/AOT_stimuli/rescaled_final/1285_rv.mp4	0.0	369.4374408721924	0.09992504119873047
50	225.09046602249146	fix_pre	0		119	48.0	2.5	/experiments/AOT/AOT_stimuli/rescaled_final/1829_fw.mp4	0.0	369.5373659133911	0.9917161464691162
50	226.07395601272583	pulse	0	t		48.0	2.5	/experiments/AOT/AOT_stimuli/rescaled_final/1829_fw.mp4	0.0	370.5208559036255	
50	226.08218216896057	movie	1		248	48.0	2.5	/experiments/AOT/AOT_stimuli/rescaled_final/1829_fw.mp4	0.0	370.52908205986023	2.5082108974456787
50	227.67342710494995	pulse	1	t		48.0	2.5	/experiments/AOT/AOT_stimuli/rescaled_final/1829_fw.mp4	0.0	372.1203269958496	
50	228.59039306640625	fix_post	2		12	48.0	2.5	/experiments/AOT/AOT_stimuli/rescaled_final/1829_fw.mp4	0.0	373.0372929573059	0.10026311874389648
51	228.69065618515015	fix_pre	0		120	49.0	2.5	blank	1.0	373.1375560760498	0.9997658729553223
51	229.2739942073822	pulse	0	t		49.0	2.5	blank	1.0	373.72089409828186	
51	229.69042205810547	movie	1		300	49.0	2.5	blank	1.0	374.1373219490051	2.500117063522339
51	230.87396621704102	pulse	1	t		49.0	2.5	blank	1.0	375.3208661079407	
51	232.1905391216278	fix_post	2		12	49.0	2.5	blank	1.0	376.63743901252747	0.0999300479888916
52	232.2904691696167	fix_pre	0		120	50.0	2.5	/experiments/AOT/AOT_stimuli/rescaled_final/1145_rv.mp4	0.0	376.73736906051636	0.9999768733978271
52	232.47407603263855	pulse	0	t		50.0	2.5	/experiments/AOT/AOT_stimuli/rescaled_final/1145_rv.mp4	0.0	376.9209759235382	
52	233.29044604301453	movie	1		245	50.0	2.5	/experiments/AOT/AOT_stimuli/rescaled_final/1145_rv.mp4	0.0	377.7373459339142	2.500072956085205
52	234.07397198677063	pulse	1	t		50.0	2.5	/experiments/AOT/AOT_stimuli/rescaled_final/1145_rv.mp4	0.0	378.5208718776703	
52	235.67404103279114	pulse	1	t		50.0	2.5	/experiments/AOT/AOT_stimuli/rescaled_final/1145_rv.mp4	0.0	380.1209409236908	
52	235.79051899909973	fix_post	2		12	50.0	2.5	/experiments/AOT/AOT_stimuli/rescaled_final/1145_rv.mp4	0.0	380.2374188899994	0.10007619857788086
53	235.8905951976776	fix_pre	0		120	51.0	2.5	/experiments/AOT/AOT_stimuli/rescaled_final/1873_rv.mp4	0.0	380.33749508857727	0.9998388290405273
53	236.89043402671814	movie	1		244	51.0	2.5	/experiments/AOT/AOT_stimuli/rescaled_final/1873_rv.mp4	0.0	381.3373339176178	2.500378131866455
53	237.2737741470337	pulse	1	t		51.0	2.5	/experiments/AOT/AOT_stimuli/rescaled_final/1873_rv.mp4	0.0	381.72067403793335	
53	238.87391710281372	pulse	1	t		51.0	2.5	/experiments/AOT/AOT_stimuli/rescaled_final/1873_rv.mp4	0.0	383.3208169937134	
53	239.3908121585846	fix_post	2		12	51.0	2.5	/experiments/AOT/AOT_stimuli/rescaled_final/1873_rv.mp4	0.0	383.83771204948425	0.09970688819885254
54	239.49051904678345	fix_pre	0		119	52.0	2.5	/experiments/AOT/AOT_stimuli/rescaled_final/1360_fw.mp4	0.0	383.9374189376831	0.9916441440582275
54	240.4739270210266	pulse	0	t		52.0	2.5	/experiments/AOT/AOT_stimuli/rescaled_final/1360_fw.mp4	0.0	384.92082691192627	
54	240.48216319084167	movie	1		245	52.0	2.5	/experiments/AOT/AOT_stimuli/rescaled_final/1360_fw.mp4	0.0	384.92906308174133	2.5078399181365967
54	242.0736231803894	pulse	1	t		52.0	2.5	/experiments/AOT/AOT_stimuli/rescaled_final/1360_fw.mp4	0.0	386.52052307128906	
54	242.99000310897827	fix_post	2		12	52.0	2.5	/experiments/AOT/AOT_stimuli/rescaled_final/1360_fw.mp4	0.0	387.43690299987793	0.10089302062988281
55	243.09089612960815	fix_pre	0		120	53.0	2.5	/experiments/AOT/AOT_stimuli/rescaled_final/1352_fw.mp4	0.0	387.5377960205078	0.9991130828857422
55	243.67391800880432	pulse	0	t		53.0	2.5	/experiments/AOT/AOT_stimuli/rescaled_final/1352_fw.mp4	0.0	388.120817899704	
55	244.0900092124939	movie	1		246	53.0	2.5	/experiments/AOT/AOT_stimuli/rescaled_final/1352_fw.mp4	0.0	388.53690910339355	2.500086784362793
55	245.27349615097046	pulse	1	t		53.0	2.5	/experiments/AOT/AOT_stimuli/rescaled_final/1352_fw.mp4	0.0	389.7203960418701	
55	246.5900959968567	fix_post	2		12	53.0	2.5	/experiments/AOT/AOT_stimuli/rescaled_final/1352_fw.mp4	0.0	391.03699588775635	0.10048604011535645
56	246.69058203697205	fix_pre	0		120	54.0	2.5	blank	1.0	391.1374819278717	0.9998509883880615
56	246.8737142086029	pulse	0	t		54.0	2.5	blank	1.0	391.32061409950256	
56	247.6904330253601	movie	1		300	54.0	2.5	blank	1.0	392.13733291625977	2.499958038330078
56	248.4739351272583	pulse	1	t		54.0	2.5	blank	1.0	392.92083501815796	
56	250.07388305664062	pulse	1	t		54.0	2.5	blank	1.0	394.5207829475403	
56	250.19039106369019	fix_post	2		12	54.0	2.5	blank	1.0	394.63729095458984	0.10004901885986328
57	250.29044008255005	fix_pre	0		120	55.0	2.5	/experiments/AOT/AOT_stimuli/rescaled_final/1691_fw.mp4	0.0	394.7373399734497	0.9999070167541504
57	251.2903470993042	movie	1		243	55.0	2.5	/experiments/AOT/AOT_stimuli/rescaled_final/1691_fw.mp4	0.0	395.73724699020386	2.5000550746917725
57	251.6741590499878	pulse	1	t		55.0	2.5	/experiments/AOT/AOT_stimuli/rescaled_final/1691_fw.mp4	0.0	396.12105894088745	
57	253.27378702163696	pulse	1	t		55.0	2.5	/experiments/AOT/AOT_stimuli/rescaled_final/1691_fw.mp4	0.0	397.7206869125366	
57	253.79040217399597	fix_post	2		12	55.0	2.5	/experiments/AOT/AOT_stimuli/rescaled_final/1691_fw.mp4	0.0	398.23730206489563	0.09991288185119629
58	253.89031505584717	fix_pre	0		119	56.0	2.5	/experiments/AOT/AOT_stimuli/rescaled_final/2057_fw.mp4	0.0	398.3372149467468	0.9917280673980713
58	254.87395811080933	pulse	0	t		56.0	2.5	/experiments/AOT/AOT_stimuli/rescaled_final/2057_fw.mp4	0.0	399.320858001709	
58	254.88204312324524	movie	1		244	56.0	2.5	/experiments/AOT/AOT_stimuli/rescaled_final/2057_fw.mp4	0.0	399.3289430141449	2.5083460807800293
58	256.47348403930664	pulse	1	t		56.0	2.5	/experiments/AOT/AOT_stimuli/rescaled_final/2057_fw.mp4	0.0	400.9203839302063	
58	257.39038920402527	fix_post	2		12	56.0	2.5	/experiments/AOT/AOT_stimuli/rescaled_final/2057_fw.mp4	0.0	401.8372890949249	0.10004997253417969
59	257.49043917655945	fix_pre	0		120	57.0	2.5	/experiments/AOT/AOT_stimuli/rescaled_final/0589_rv.mp4	0.0	401.9373390674591	0.9998559951782227
59	258.0738961696625	pulse	0	t		57.0	2.5	/experiments/AOT/AOT_stimuli/rescaled_final/0589_rv.mp4	0.0	402.52079606056213	
59	258.49029517173767	movie	1		244	57.0	2.5	/experiments/AOT/AOT_stimuli/rescaled_final/0589_rv.mp4	0.0	402.93719506263733	2.5000979900360107
59	259.673935174942	pulse	1	t		57.0	2.5	/experiments/AOT/AOT_stimuli/rescaled_final/0589_rv.mp4	0.0	404.1208350658417	
59	260.9903931617737	fix_post	2		12	57.0	2.5	/experiments/AOT/AOT_stimuli/rescaled_final/0589_rv.mp4	0.0	405.43729305267334	0.09993290901184082
60	261.0903260707855	fix_pre	0		120	58.0	2.5	/experiments/AOT/AOT_stimuli/rescaled_final/1076_fw.mp4	0.0	405.5372259616852	1.0000779628753662
60	261.27384901046753	pulse	0	t		58.0	2.5	/experiments/AOT/AOT_stimuli/rescaled_final/1076_fw.mp4	0.0	405.7207489013672	
60	262.0904040336609	movie	1		243	58.0	2.5	/experiments/AOT/AOT_stimuli/rescaled_final/1076_fw.mp4	0.0	406.53730392456055	2.499941110610962
60	262.87381505966187	pulse	1	t		58.0	2.5	/experiments/AOT/AOT_stimuli/rescaled_final/1076_fw.mp4	0.0	407.3207149505615	
60	264.4721851348877	pulse	1	t		58.0	2.5	/experiments/AOT/AOT_stimuli/rescaled_final/1076_fw.mp4	0.0	408.91908502578735	
60	264.59034514427185	fix_post	2		12	58.0	2.5	/experiments/AOT/AOT_stimuli/rescaled_final/1076_fw.mp4	0.0	409.0372450351715	0.10003304481506348
61	264.6903781890869	fix_pre	0		120	59.0	2.5	/experiments/AOT/AOT_stimuli/rescaled_final/0024_rv.mp4	0.0	409.1372780799866	0.9999430179595947
61	265.6903212070465	movie	1		246	59.0	2.5	/experiments/AOT/AOT_stimuli/rescaled_final/0024_rv.mp4	0.0	410.13722109794617	2.500081777572632
61	266.0739622116089	pulse	1	t		59.0	2.5	/experiments/AOT/AOT_stimuli/rescaled_final/0024_rv.mp4	0.0	410.52086210250854	
61	267.6737961769104	pulse	1	t		59.0	2.5	/experiments/AOT/AOT_stimuli/rescaled_final/0024_rv.mp4	0.0	412.12069606781006	
61	268.19040298461914	fix_post	2		12	59.0	2.5	/experiments/AOT/AOT_stimuli/rescaled_final/0024_rv.mp4	0.0	412.6373028755188	0.10080504417419434
62	268.29120802879333	fix_pre	0		119	60.0	2.5	/experiments/AOT/AOT_stimuli/rescaled_final/0766_fw.mp4	0.0	412.738107919693	0.990760087966919
62	269.27373909950256	pulse	0	t		60.0	2.5	/experiments/AOT/AOT_stimuli/rescaled_final/0766_fw.mp4	0.0	413.7206389904022	
62	269.28196811676025	movie	1		246	60.0	2.5	/experiments/AOT/AOT_stimuli/rescaled_final/0766_fw.mp4	0.0	413.7288680076599	2.507862091064453
62	270.8734540939331	pulse	1	t		60.0	2.5	/experiments/AOT/AOT_stimuli/rescaled_final/0766_fw.mp4	0.0	415.32035398483276	
62	271.7898302078247	fix_post	2		12	60.0	2.5	/experiments/AOT/AOT_stimuli/rescaled_final/0766_fw.mp4	0.0	416.23673009872437	0.10165786743164062
63	271.89148807525635	fix_pre	0		120	61.0	2.5	/experiments/AOT/AOT_stimuli/rescaled_final/1430_fw.mp4	0.0	416.338387966156	0.9988369941711426
63	272.4737331867218	pulse	0	t		61.0	2.5	/experiments/AOT/AOT_stimuli/rescaled_final/1430_fw.mp4	0.0	416.92063307762146	
63	272.8903250694275	movie	1		244	61.0	2.5	/experiments/AOT/AOT_stimuli/rescaled_final/1430_fw.mp4	0.0	417.33722496032715	2.499464988708496
63	274.07378220558167	pulse	1	t		61.0	2.5	/experiments/AOT/AOT_stimuli/rescaled_final/1430_fw.mp4	0.0	418.5206820964813	
63	275.389790058136	fix_post	2		12	61.0	2.5	/experiments/AOT/AOT_stimuli/rescaled_final/1430_fw.mp4	0.0	419.83668994903564	0.10044193267822266
64	275.4902319908142	fix_pre	0		120	62.0	2.5	blank	1.0	419.93713188171387	1.0000660419464111
64	275.6737461090088	pulse	0	t		62.0	2.5	blank	1.0	420.12064599990845	
64	276.4902980327606	movie	1		300	62.0	2.5	blank	1.0	420.9371979236603	2.499986171722412
64	277.27381110191345	pulse	1	t		62.0	2.5	blank	1.0	421.7207109928131	
64	278.87370800971985	pulse	1	t		62.0	2.5	blank	1.0	423.3206079006195	
64	278.99028420448303	fix_post	2		12	62.0	2.5	blank	1.0	423.4371840953827	0.09999990463256836
65	279.0902841091156	fix_pre	0		120	63.0	2.5	/experiments/AOT/AOT_stimuli/rescaled_final/1185_fw.mp4	0.0	423.53718400001526	0.9999198913574219
65	280.090204000473	movie	1		244	63.0	2.5	/experiments/AOT/AOT_stimuli/rescaled_final/1185_fw.mp4	0.0	424.5371038913727	2.4997291564941406
65	280.4733121395111	pulse	1	t		63.0	2.5	/experiments/AOT/AOT_stimuli/rescaled_final/1185_fw.mp4	0.0	424.92021203041077	
65	282.07370805740356	pulse	1	t		63.0	2.5	/experiments/AOT/AOT_stimuli/rescaled_final/1185_fw.mp4	0.0	426.5206079483032	
65	282.58993315696716	fix_post	2		12	63.0	2.5	/experiments/AOT/AOT_stimuli/rescaled_final/1185_fw.mp4	0.0	427.0368330478668	0.10073995590209961
66	282.69067311286926	fix_pre	0		119	64.0	2.5	/experiments/AOT/AOT_stimuli/rescaled_final/0220_rv.mp4	0.0	427.1375730037689	0.9912688732147217
66	283.67372608184814	pulse	0	t		64.0	2.5	/experiments/AOT/AOT_stimuli/rescaled_final/0220_rv.mp4	0.0	428.1206259727478	
66	283.681941986084	movie	1		245	64.0	2.5	/experiments/AOT/AOT_stimuli/rescaled_final/0220_rv.mp4	0.0	428.12884187698364	2.5083260536193848
66	285.27523016929626	pulse	1	t		64.0	2.5	/experiments/AOT/AOT_stimuli/rescaled_final/0220_rv.mp4	0.0	429.7221300601959	
66	286.19026803970337	fix_post	2		12	64.0	2.5	/experiments/AOT/AOT_stimuli/rescaled_final/0220_rv.mp4	0.0	430.637167930603	0.09995412826538086
67	286.29022216796875	fix_pre	0		120	65.0	2.5	/experiments/AOT/AOT_stimuli/rescaled_final/0175_rv.mp4	0.0	430.7371220588684	1.0001180171966553
67	286.87371015548706	pulse	0	t		65.0	2.5	/experiments/AOT/AOT_stimuli/rescaled_final/0175_rv.mp4	0.0	431.3206100463867	
67	287.2903401851654	movie	1		245	65.0	2.5	/experiments/AOT/AOT_stimuli/rescaled_final/0175_rv.mp4	0.0	431.73724007606506	2.4998109340667725
67	288.4737801551819	pulse	1	t		65.0	2.5	/experiments/AOT/AOT_stimuli/rescaled_final/0175_rv.mp4	0.0	432.92068004608154	
67	289.7901511192322	fix_post	2		12	65.0	2.5	/experiments/AOT/AOT_stimuli/rescaled_final/0175_rv.mp4	0.0	434.23705101013184	0.10004901885986328
68	289.89020013809204	fix_pre	0		120	66.0	2.5	/experiments/AOT/AOT_stimuli/rescaled_final/1464_fw.mp4	0.0	434.3371000289917	0.9999549388885498
68	290.0737202167511	pulse	0	t		66.0	2.5	/experiments/AOT/AOT_stimuli/rescaled_final/1464_fw.mp4	0.0	434.52062010765076	
68	290.8901550769806	movie	1		246	66.0	2.5	/experiments/AOT/AOT_stimuli/rescaled_final/1464_fw.mp4	0.0	435.33705496788025	2.4999639987945557
68	291.673810005188	pulse	1	t		66.0	2.5	/experiments/AOT/AOT_stimuli/rescaled_final/1464_fw.mp4	0.0	436.12070989608765	
68	293.2736351490021	pulse	1	t		66.0	2.5	/experiments/AOT/AOT_stimuli/rescaled_final/1464_fw.mp4	0.0	437.72053503990173	
68	293.39011907577515	fix_post	2		12	66.0	2.5	/experiments/AOT/AOT_stimuli/rescaled_final/1464_fw.mp4	0.0	437.8370189666748	0.10003495216369629
69	293.49015402793884	fix_pre	0		120	67.0	2.5	/experiments/AOT/AOT_stimuli/rescaled_final/0948_fw.mp4	0.0	437.9370539188385	1.000101089477539
69	294.4902551174164	movie	1		244	67.0	2.5	/experiments/AOT/AOT_stimuli/rescaled_final/0948_fw.mp4	0.0	438.93715500831604	2.499851942062378
69	294.87361907958984	pulse	1	t		67.0	2.5	/experiments/AOT/AOT_stimuli/rescaled_final/0948_fw.mp4	0.0	439.3205189704895	
69	296.47367906570435	pulse	1	t		67.0	2.5	/experiments/AOT/AOT_stimuli/rescaled_final/0948_fw.mp4	0.0	440.920578956604	
69	296.99010705947876	fix_post	2		12	67.0	2.5	/experiments/AOT/AOT_stimuli/rescaled_final/0948_fw.mp4	0.0	441.4370069503784	0.10005807876586914
70	297.09016513824463	fix_pre	0		119	68.0	2.5	/experiments/AOT/AOT_stimuli/rescaled_final/2044_rv.mp4	0.0	441.5370650291443	0.9916939735412598
70	298.07360911369324	pulse	0	t		68.0	2.5	/experiments/AOT/AOT_stimuli/rescaled_final/2044_rv.mp4	0.0	442.5205090045929	
70	298.0818591117859	movie	1		246	68.0	2.5	/experiments/AOT/AOT_stimuli/rescaled_final/2044_rv.mp4	0.0	442.52875900268555	2.507910966873169
70	299.67322301864624	pulse	1	t		68.0	2.5	/experiments/AOT/AOT_stimuli/rescaled_final/2044_rv.mp4	0.0	444.1201229095459	
70	300.58977007865906	fix_post	2		12	68.0	2.5	/experiments/AOT/AOT_stimuli/rescaled_final/2044_rv.mp4	0.0	445.0366699695587	0.10038495063781738
71	300.6901550292969	fix_pre	0		120	69.0	2.5	/experiments/AOT/AOT_stimuli/rescaled_final/1879_fw.mp4	0.0	445.13705492019653	1.0000920295715332
71	301.2732961177826	pulse	0	t		69.0	2.5	/experiments/AOT/AOT_stimuli/rescaled_final/1879_fw.mp4	0.0	445.72019600868225	
71	301.6902470588684	movie	1		245	69.0	2.5	/experiments/AOT/AOT_stimuli/rescaled_final/1879_fw.mp4	0.0	446.13714694976807	2.499932050704956
71	302.8738532066345	pulse	1	t		69.0	2.5	/experiments/AOT/AOT_stimuli/rescaled_final/1879_fw.mp4	0.0	447.3207530975342	
71	304.19017910957336	fix_post	2		12	69.0	2.5	/experiments/AOT/AOT_stimuli/rescaled_final/1879_fw.mp4	0.0	448.637079000473	0.09995794296264648
72	304.290137052536	fix_pre	0		120	70.0	2.5	blank	1.0	448.73703694343567	1.0000569820404053
72	304.4736502170563	pulse	0	t		70.0	2.5	blank	1.0	448.92055010795593	
72	305.2901940345764	movie	1		300	70.0	2.5	blank	1.0	449.7370939254761	2.4999849796295166
72	306.07367515563965	pulse	1	t		70.0	2.5	blank	1.0	450.5205750465393	
72	307.6735441684723	pulse	1	t		70.0	2.5	blank	1.0	452.12044405937195	
72	307.79017901420593	fix_post	2		12	70.0	2.5	blank	1.0	452.2370789051056	0.09985113143920898
73	307.89003014564514	fix_pre	0		120	71.0	2.5	/experiments/AOT/AOT_stimuli/rescaled_final/0471_rv.mp4	0.0	452.3369300365448	1.0000300407409668
73	308.8900601863861	movie	1		246	71.0	2.5	/experiments/AOT/AOT_stimuli/rescaled_final/0471_rv.mp4	0.0	453.33696007728577	2.4999849796295166
73	309.27354407310486	pulse	1	t		71.0	2.5	/experiments/AOT/AOT_stimuli/rescaled_final/0471_rv.mp4	0.0	453.7204439640045	
73	310.8735580444336	pulse	1	t		71.0	2.5	/experiments/AOT/AOT_stimuli/rescaled_final/0471_rv.mp4	0.0	455.32045793533325	
73	311.3900451660156	fix_post	2		12	71.0	2.5	/experiments/AOT/AOT_stimuli/rescaled_final/0471_rv.mp4	0.0	455.8369450569153	0.10006999969482422
74	311.49011516571045	fix_pre	0		119	72.0	2.5	/experiments/AOT/AOT_stimuli/rescaled_final/0678_rv.mp4	0.0	455.9370150566101	0.9915788173675537
74	312.4735870361328	pulse	0	t		72.0	2.5	/experiments/AOT/AOT_stimuli/rescaled_final/0678_rv.mp4	0.0	456.92048692703247	
74	312.481693983078	movie	1		246	72.0	2.5	/experiments/AOT/AOT_stimuli/rescaled_final/0678_rv.mp4	0.0	456.92859387397766	2.5083870887756348
74	314.0733120441437	pulse	1	t		72.0	2.5	/experiments/AOT/AOT_stimuli/rescaled_final/0678_rv.mp4	0.0	458.52021193504333	
74	314.99008107185364	fix_post	2		12	72.0	2.5	/experiments/AOT/AOT_stimuli/rescaled_final/0678_rv.mp4	0.0	459.4369809627533	0.09995698928833008
75	315.09003806114197	fix_pre	0		120	73.0	2.5	/experiments/AOT/AOT_stimuli/rescaled_final/1371_rv.mp4	0.0	459.5369379520416	1.0000741481781006
75	315.6735370159149	pulse	0	t		73.0	2.5	/experiments/AOT/AOT_stimuli/rescaled_final/1371_rv.mp4	0.0	460.1204369068146	
75	316.09011220932007	movie	1		244	73.0	2.5	/experiments/AOT/AOT_stimuli/rescaled_final/1371_rv.mp4	0.0	460.5370121002197	2.49996280670166
75	317.27356004714966	pulse	1	t		73.0	2.5	/experiments/AOT/AOT_stimuli/rescaled_final/1371_rv.mp4	0.0	461.7204599380493	
75	318.59007501602173	fix_post	2		12	73.0	2.5	/experiments/AOT/AOT_stimuli/rescaled_final/1371_rv.mp4	0.0	463.0369749069214	0.10002899169921875
76	318.69010400772095	fix_pre	0		120	74.0	2.5	/experiments/AOT/AOT_stimuli/rescaled_final/0839_fw.mp4	0.0	463.1370038986206	1.0000181198120117
76	318.87354803085327	pulse	0	t		74.0	2.5	/experiments/AOT/AOT_stimuli/rescaled_final/0839_fw.mp4	0.0	463.32044792175293	
76	319.69012212753296	movie	1		245	74.0	2.5	/experiments/AOT/AOT_stimuli/rescaled_final/0839_fw.mp4	0.0	464.1370220184326	2.499969959259033
76	320.4734990596771	pulse	1	t		74.0	2.5	/experiments/AOT/AOT_stimuli/rescaled_final/0839_fw.mp4	0.0	464.9203989505768	
76	322.073527097702	pulse	1	t		74.0	2.5	/experiments/AOT/AOT_stimuli/rescaled_final/0839_fw.mp4	0.0	466.5204269886017	
76	322.190092086792	fix_post	2		12	74.0	2.5	/experiments/AOT/AOT_stimuli/rescaled_final/0839_fw.mp4	0.0	466.63699197769165	0.09992194175720215
77	322.2900140285492	fix_pre	0		120	75.0	2.5	/experiments/AOT/AOT_stimuli/rescaled_final/1486_rv.mp4	0.0	466.73691391944885	1.0000481605529785
77	323.2900621891022	movie	1		243	75.0	2.5	/experiments/AOT/AOT_stimuli/rescaled_final/1486_rv.mp4	0.0	467.73696208000183	2.499940872192383
77	323.67340111732483	pulse	1	t		75.0	2.5	/experiments/AOT/AOT_stimuli/rescaled_final/1486_rv.mp4	0.0	468.1203010082245	
77	325.2734830379486	pulse	1	t		75.0	2.5	/experiments/AOT/AOT_stimuli/rescaled_final/1486_rv.mp4	0.0	469.72038292884827	
77	325.79000306129456	fix_post	2		12	75.0	2.5	/experiments/AOT/AOT_stimuli/rescaled_final/1486_rv.mp4	0.0	470.2369029521942	0.10003399848937988
78	325.89003705978394	fix_pre	0		119	76.0	2.5	blank	1.0	470.3369369506836	0.9916210174560547
78	326.8734931945801	pulse	0	t		76.0	2.5	blank	1.0	471.32039308547974	
78	326.88165807724	movie	1		301	76.0	2.5	blank	1.0	471.32855796813965	2.508336067199707
78	328.47360014915466	pulse	1	t		76.0	2.5	blank	1.0	472.9205000400543	
78	329.3899941444397	fix_post	2		12	76.0	2.5	blank	1.0	473.83689403533936	0.09999489784240723
79	329.4899890422821	fix_pre	0		120	77.0	2.5	/experiments/AOT/AOT_stimuli/rescaled_final/1167_fw.mp4	0.0	473.93688893318176	1.0000369548797607
79	330.0735020637512	pulse	0	t		77.0	2.5	/experiments/AOT/AOT_stimuli/rescaled_final/1167_fw.mp4	0.0	474.5204019546509	
79	330.49002599716187	movie	1		246	77.0	2.5	/experiments/AOT/AOT_stimuli/rescaled_final/1167_fw.mp4	0.0	474.9369258880615	2.4999752044677734
79	331.67358803749084	pulse	1	t		77.0	2.5	/experiments/AOT/AOT_stimuli/rescaled_final/1167_fw.mp4	0.0	476.1204879283905	
79	332.99000120162964	fix_post	2		12	77.0	2.5	/experiments/AOT/AOT_stimuli/rescaled_final/1167_fw.mp4	0.0	477.4369010925293	0.10003399848937988
80	333.090035200119	fix_pre	0		120	78.0	2.5	/experiments/AOT/AOT_stimuli/rescaled_final/0245_rv.mp4	0.0	477.5369350910187	1.0000498294830322
80	333.27350902557373	pulse	0	t		78.0	2.5	/experiments/AOT/AOT_stimuli/rescaled_final/0245_rv.mp4	0.0	477.7204089164734	
80	334.09008502960205	movie	1		245	78.0	2.5	/experiments/AOT/AOT_stimuli/rescaled_final/0245_rv.mp4	0.0	478.5369849205017	2.4994421005249023
80	334.8735179901123	pulse	1	t		78.0	2.5	/experiments/AOT/AOT_stimuli/rescaled_final/0245_rv.mp4	0.0	479.32041788101196	
80	336.47212409973145	pulse	1	t		78.0	2.5	/experiments/AOT/AOT_stimuli/rescaled_final/0245_rv.mp4	0.0	480.9190239906311	
80	336.58952713012695	fix_post	2		12	78.0	2.5	/experiments/AOT/AOT_stimuli/rescaled_final/0245_rv.mp4	0.0	481.0364270210266	0.10039997100830078
81	336.68992710113525	fix_pre	0		120	79.0	2.5	/experiments/AOT/AOT_stimuli/rescaled_final/1458_rv.mp4	0.0	481.1368269920349	1.0001049041748047
81	337.69003200531006	movie	1		244	79.0	2.5	/experiments/AOT/AOT_stimuli/rescaled_final/1458_rv.mp4	0.0	482.1369318962097	2.500005006790161
81	338.0731551647186	pulse	1	t		79.0	2.5	/experiments/AOT/AOT_stimuli/rescaled_final/1458_rv.mp4	0.0	482.5200550556183	
81	339.6734981536865	pulse	1	t		79.0	2.5	/experiments/AOT/AOT_stimuli/rescaled_final/1458_rv.mp4	0.0	484.1203980445862	
81	340.1900370121002	fix_post	2		12	79.0	2.5	/experiments/AOT/AOT_stimuli/rescaled_final/1458_rv.mp4	0.0	484.6369369029999	0.09990501403808594
82	340.2899420261383	fix_pre	0		119	80.0	2.5	/experiments/AOT/AOT_stimuli/rescaled_final/2021_rv.mp4	0.0	484.73684191703796	0.9916360378265381
82	341.27348017692566	pulse	0	t		80.0	2.5	/experiments/AOT/AOT_stimuli/rescaled_final/2021_rv.mp4	0.0	485.7203800678253	
82	341.28157806396484	movie	1		245	80.0	2.5	/experiments/AOT/AOT_stimuli/rescaled_final/2021_rv.mp4	0.0	485.7284779548645	2.5083510875701904
82	342.87303614616394	pulse	1	t		80.0	2.5	/experiments/AOT/AOT_stimuli/rescaled_final/2021_rv.mp4	0.0	487.3199360370636	
82	343.78992915153503	fix_post	2		12	80.0	2.5	/experiments/AOT/AOT_stimuli/rescaled_final/2021_rv.mp4	0.0	488.2368290424347	0.10004591941833496
83	343.88997507095337	fix_pre	0		120	81.0	2.5	/experiments/AOT/AOT_stimuli/rescaled_final/0175_rv.mp4	0.0	488.336874961853	1.000011920928955
83	344.47343921661377	pulse	0	t		81.0	2.5	/experiments/AOT/AOT_stimuli/rescaled_final/0175_rv.mp4	0.0	488.9203391075134	
83	344.8899869918823	movie	1		244	81.0	2.5	/experiments/AOT/AOT_stimuli/rescaled_final/0175_rv.mp4	0.0	489.336886882782	2.500089168548584
83	346.07357716560364	pulse	1	t		81.0	2.5	/experiments/AOT/AOT_stimuli/rescaled_final/0175_rv.mp4	0.0	490.5204770565033	
83	347.3900761604309	fix_post	2		12	81.0	2.5	/experiments/AOT/AOT_stimuli/rescaled_final/0175_rv.mp4	0.0	491.83697605133057	0.09991598129272461
84	347.48999214172363	fix_pre	0		120	82.0	2.5	/experiments/AOT/AOT_stimuli/rescaled_final/0414_fw.mp4	0.0	491.9368920326233	0.9999809265136719
84	347.67338514328003	pulse	0	t		82.0	2.5	/experiments/AOT/AOT_stimuli/rescaled_final/0414_fw.mp4	0.0	492.1202850341797	
84	348.4899730682373	movie	1		243	82.0	2.5	/experiments/AOT/AOT_stimuli/rescaled_final/0414_fw.mp4	0.0	492.93687295913696	2.4999420642852783
84	349.27339816093445	pulse	1	t		82.0	2.5	/experiments/AOT/AOT_stimuli/rescaled_final/0414_fw.mp4	0.0	493.7202980518341	
84	350.87206506729126	pulse	1	t		82.0	2.5	/experiments/AOT/AOT_stimuli/rescaled_final/0414_fw.mp4	0.0	495.3189649581909	
84	350.9899151325226	fix_post	2		12	82.0	2.5	/experiments/AOT/AOT_stimuli/rescaled_final/0414_fw.mp4	0.0	495.43681502342224	0.09999895095825195
85	351.08991408348083	fix_pre	0		120	83.0	2.5	blank	1.0	495.5368139743805	0.9999179840087891
85	352.0898320674896	movie	1		300	83.0	2.5	blank	1.0	496.5367319583893	2.500148057937622
85	352.47343707084656	pulse	1	t		83.0	2.5	blank	1.0	496.9203369617462	
85	354.07337713241577	pulse	1	t		83.0	2.5	blank	1.0	498.52027702331543	
85	354.58998012542725	fix_post	2		12	83.0	2.5	blank	1.0	499.0368800163269	0.0998539924621582
87	354.6898341178894	stim	0		1716					499.13673400878906	14.299990892410278
87	355.6733729839325	pulse	0	t						500.12027287483215	
87	357.2734191417694	pulse	0	t						501.72031903266907	
87	358.87324118614197	pulse	0	t						503.3201410770416	
87	360.47339606285095	pulse	0	t						504.9202959537506	
87	362.0732932090759	pulse	0	t						506.5201930999756	
87	363.6732511520386	pulse	0	t						508.12015104293823	
87	365.2732880115509	pulse	0	t						509.72018790245056	
87	366.87326216697693	pulse	0	t						511.3201620578766	
87	368.4733850955963	pulse	0	t						512.920284986496	
