trial_nr	onset	event_type	phase	response	nr_frames	movie_index	movie_duration	movie_file	blank	onset_abs	duration
0	0.15784287452697754	stim	0		225					32.257314920425415	1.8753371238708496
0	2.0253090858459473	response	0	space						34.124781131744385	
1	2.033179998397827	stim	0		12054					34.132652044296265	100.45793509483337
1	102.47969794273376	pulse	0	t						134.5791699886322	
1	102.4911150932312	stim	1		1716					134.59058713912964	14.299880981445312
1	104.07462501525879	pulse	1	t						136.17409706115723	
1	105.67535400390625	pulse	1	t						137.7748260498047	
1	107.27534294128418	pulse	1	t						139.37481498718262	
1	108.87536191940308	pulse	1	t						140.9748339653015	
1	110.47529697418213	pulse	1	t						142.57476902008057	
1	112.07452201843262	pulse	1	t						144.17399406433105	
1	113.6744818687439	pulse	1	t						145.77395391464233	
1	115.27447390556335	pulse	1	t						147.3739459514618	
2	116.79099607467651	fix_pre	0		11	0.0	2.5	/experiments/AOT/AOT_stimuli/rescaled_final/0272_rv.mp4	0.0	148.89046812057495	0.09163784980773926
2	116.87448692321777	pulse	0	t		0.0	2.5	/experiments/AOT/AOT_stimuli/rescaled_final/0272_rv.mp4	0.0	148.9739589691162	
2	116.88263392448425	movie	1		244	0.0	2.5	/experiments/AOT/AOT_stimuli/rescaled_final/0272_rv.mp4	0.0	148.9821059703827	2.5083601474761963
2	118.48286700248718	pulse	1	t		0.0	2.5	/experiments/AOT/AOT_stimuli/rescaled_final/0272_rv.mp4	0.0	150.58233904838562	
2	119.39099407196045	fix_post	2		12	0.0	2.5	/experiments/AOT/AOT_stimuli/rescaled_final/0272_rv.mp4	0.0	151.4904661178589	0.09997296333312988
3	119.49096703529358	fix_pre	0		120	1.0	2.5	/experiments/AOT/AOT_stimuli/rescaled_final/1692_fw.mp4	0.0	151.59043908119202	1.000082015991211
3	120.07447290420532	pulse	0	t		1.0	2.5	/experiments/AOT/AOT_stimuli/rescaled_final/1692_fw.mp4	0.0	152.17394495010376	
3	120.49104905128479	movie	1		243	1.0	2.5	/experiments/AOT/AOT_stimuli/rescaled_final/1692_fw.mp4	0.0	152.59052109718323	2.49993896484375
3	121.67542791366577	pulse	1	t		1.0	2.5	/experiments/AOT/AOT_stimuli/rescaled_final/1692_fw.mp4	0.0	153.7748999595642	
3	122.99098801612854	fix_post	2		12	1.0	2.5	/experiments/AOT/AOT_stimuli/rescaled_final/1692_fw.mp4	0.0	155.09046006202698	0.10004186630249023
4	123.09102988243103	fix_pre	0		120	2.0	2.5	/experiments/AOT/AOT_stimuli/rescaled_final/0780_fw.mp4	0.0	155.19050192832947	0.9998250007629395
4	123.27533006668091	pulse	0	t		2.0	2.5	/experiments/AOT/AOT_stimuli/rescaled_final/0780_fw.mp4	0.0	155.37480211257935	
4	124.09085488319397	movie	1		245	2.0	2.5	/experiments/AOT/AOT_stimuli/rescaled_final/0780_fw.mp4	0.0	156.1903269290924	2.500105142593384
4	124.8754210472107	pulse	1	t		2.0	2.5	/experiments/AOT/AOT_stimuli/rescaled_final/0780_fw.mp4	0.0	156.97489309310913	
4	126.4795470237732	pulse	1	t		2.0	2.5	/experiments/AOT/AOT_stimuli/rescaled_final/0780_fw.mp4	0.0	158.57901906967163	
4	126.59096002578735	fix_post	2		12	2.0	2.5	/experiments/AOT/AOT_stimuli/rescaled_final/0780_fw.mp4	0.0	158.6904320716858	0.09954500198364258
5	126.690505027771	fix_pre	0		120	3.0	2.5	/experiments/AOT/AOT_stimuli/rescaled_final/1955_rv.mp4	0.0	158.78997707366943	1.0004010200500488
5	127.69090604782104	movie	1		243	3.0	2.5	/experiments/AOT/AOT_stimuli/rescaled_final/1955_rv.mp4	0.0	159.79037809371948	2.5000109672546387
5	128.0827670097351	pulse	1	t		3.0	2.5	/experiments/AOT/AOT_stimuli/rescaled_final/1955_rv.mp4	0.0	160.18223905563354	
5	129.67536091804504	pulse	1	t		3.0	2.5	/experiments/AOT/AOT_stimuli/rescaled_final/1955_rv.mp4	0.0	161.77483296394348	
5	130.19091701507568	fix_post	2		12	3.0	2.5	/experiments/AOT/AOT_stimuli/rescaled_final/1955_rv.mp4	0.0	162.29038906097412	0.09999489784240723
6	130.2909119129181	fix_pre	0		120	4.0	2.5	/experiments/AOT/AOT_stimuli/rescaled_final/0846_rv.mp4	0.0	162.39038395881653	1.0000271797180176
6	131.27515602111816	pulse	0	t		4.0	2.5	/experiments/AOT/AOT_stimuli/rescaled_final/0846_rv.mp4	0.0	163.3746280670166	
6	131.2909390926361	movie	1		245	4.0	2.5	/experiments/AOT/AOT_stimuli/rescaled_final/0846_rv.mp4	0.0	163.39041113853455	2.50830078125
6	132.8822340965271	pulse	1	t		4.0	2.5	/experiments/AOT/AOT_stimuli/rescaled_final/0846_rv.mp4	0.0	164.98170614242554	
6	133.7992398738861	fix_post	2		12	4.0	2.5	/experiments/AOT/AOT_stimuli/rescaled_final/0846_rv.mp4	0.0	165.89871191978455	0.10008811950683594
7	133.89932799339294	fix_pre	0		120	5.0	2.5	/experiments/AOT/AOT_stimuli/rescaled_final/1261_rv.mp4	0.0	165.99880003929138	1.0000150203704834
7	134.4744429588318	pulse	0	t		5.0	2.5	/experiments/AOT/AOT_stimuli/rescaled_final/1261_rv.mp4	0.0	166.57391500473022	
7	134.89934301376343	movie	1		243	5.0	2.5	/experiments/AOT/AOT_stimuli/rescaled_final/1261_rv.mp4	0.0	166.99881505966187	2.4994189739227295
7	136.0827660560608	pulse	1	t		5.0	2.5	/experiments/AOT/AOT_stimuli/rescaled_final/1261_rv.mp4	0.0	168.18223810195923	
7	137.39876198768616	fix_post	2		12	5.0	2.5	/experiments/AOT/AOT_stimuli/rescaled_final/1261_rv.mp4	0.0	169.4982340335846	0.10047793388366699
8	137.49923992156982	fix_pre	0		120	6.0	2.5	/experiments/AOT/AOT_stimuli/rescaled_final/1987_fw.mp4	0.0	169.59871196746826	0.9999430179595947
8	137.6752519607544	pulse	0	t		6.0	2.5	/experiments/AOT/AOT_stimuli/rescaled_final/1987_fw.mp4	0.0	169.77472400665283	
8	138.49918293952942	movie	1		243	6.0	2.5	/experiments/AOT/AOT_stimuli/rescaled_final/1987_fw.mp4	0.0	170.59865498542786	2.5001449584960938
8	139.27541399002075	pulse	1	t		6.0	2.5	/experiments/AOT/AOT_stimuli/rescaled_final/1987_fw.mp4	0.0	171.3748860359192	
8	140.88101601600647	pulse	1	t		6.0	2.5	/experiments/AOT/AOT_stimuli/rescaled_final/1987_fw.mp4	0.0	172.9804880619049	
8	140.9993278980255	fix_post	2		12	6.0	2.5	/experiments/AOT/AOT_stimuli/rescaled_final/1987_fw.mp4	0.0	173.09879994392395	0.09991717338562012
9	141.09924507141113	fix_pre	0		120	7.0	2.5	blank	1.0	173.19871711730957	0.9995748996734619
9	142.0988199710846	movie	1		300	7.0	2.5	blank	1.0	174.19829201698303	2.5006539821624756
9	142.4823498725891	pulse	1	t		7.0	2.5	blank	1.0	174.58182191848755	
9	144.07536697387695	pulse	1	t		7.0	2.5	blank	1.0	176.1748390197754	
9	144.59947395324707	fix_post	2		12	7.0	2.5	blank	1.0	176.6989459991455	0.09967899322509766
10	144.69915294647217	fix_pre	0		119	8.0	2.5	/experiments/AOT/AOT_stimuli/rescaled_final/1101_rv.mp4	0.0	176.7986249923706	0.991814136505127
10	145.67523193359375	pulse	0	t		8.0	2.5	/experiments/AOT/AOT_stimuli/rescaled_final/1101_rv.mp4	0.0	177.7747039794922	
10	145.6909670829773	movie	1		246	8.0	2.5	/experiments/AOT/AOT_stimuli/rescaled_final/1101_rv.mp4	0.0	177.79043912887573	2.5084049701690674
10	147.28198289871216	pulse	1	t		8.0	2.5	/experiments/AOT/AOT_stimuli/rescaled_final/1101_rv.mp4	0.0	179.3814549446106	
10	148.19937205314636	fix_post	2		12	8.0	2.5	/experiments/AOT/AOT_stimuli/rescaled_final/1101_rv.mp4	0.0	180.2988440990448	0.0998380184173584
11	148.29921007156372	fix_pre	0		120	9.0	2.5	/experiments/AOT/AOT_stimuli/rescaled_final/0103_rv.mp4	0.0	180.39868211746216	1.0000498294830322
11	148.87520003318787	pulse	0	t		9.0	2.5	/experiments/AOT/AOT_stimuli/rescaled_final/0103_rv.mp4	0.0	180.9746720790863	
11	149.29925990104675	movie	1		245	9.0	2.5	/experiments/AOT/AOT_stimuli/rescaled_final/0103_rv.mp4	0.0	181.3987319469452	2.499533176422119
11	150.4826729297638	pulse	1	t		9.0	2.5	/experiments/AOT/AOT_stimuli/rescaled_final/0103_rv.mp4	0.0	182.58214497566223	
11	151.79879307746887	fix_post	2		12	9.0	2.5	/experiments/AOT/AOT_stimuli/rescaled_final/0103_rv.mp4	0.0	183.8982651233673	0.10047197341918945
12	151.89926505088806	fix_pre	0		120	10.0	2.5	/experiments/AOT/AOT_stimuli/rescaled_final/1587_fw.mp4	0.0	183.9987370967865	0.9998569488525391
12	152.07428002357483	pulse	0	t		10.0	2.5	/experiments/AOT/AOT_stimuli/rescaled_final/1587_fw.mp4	0.0	184.17375206947327	
12	152.8991219997406	movie	1		245	10.0	2.5	/experiments/AOT/AOT_stimuli/rescaled_final/1587_fw.mp4	0.0	184.99859404563904	2.5000128746032715
12	153.67519807815552	pulse	1	t		10.0	2.5	/experiments/AOT/AOT_stimuli/rescaled_final/1587_fw.mp4	0.0	185.77467012405396	
12	155.28118109703064	pulse	1	t		10.0	2.5	/experiments/AOT/AOT_stimuli/rescaled_final/1587_fw.mp4	0.0	187.38065314292908	
12	155.39913487434387	fix_post	2		12	10.0	2.5	/experiments/AOT/AOT_stimuli/rescaled_final/1587_fw.mp4	0.0	187.4986069202423	0.10002017021179199
13	155.49915504455566	fix_pre	0		120	11.0	2.5	/experiments/AOT/AOT_stimuli/rescaled_final/0486_rv.mp4	0.0	187.5986270904541	1.0000908374786377
13	156.4992458820343	movie	1		245	11.0	2.5	/experiments/AOT/AOT_stimuli/rescaled_final/0486_rv.mp4	0.0	188.59871792793274	2.499878168106079
13	156.88223505020142	pulse	1	t		11.0	2.5	/experiments/AOT/AOT_stimuli/rescaled_final/0486_rv.mp4	0.0	188.98170709609985	
13	158.4753201007843	pulse	1	t		11.0	2.5	/experiments/AOT/AOT_stimuli/rescaled_final/0486_rv.mp4	0.0	190.57479214668274	
13	158.99912405014038	fix_post	2		12	11.0	2.5	/experiments/AOT/AOT_stimuli/rescaled_final/0486_rv.mp4	0.0	191.09859609603882	0.10004997253417969
14	159.09917402267456	fix_pre	0		119	12.0	2.5	/experiments/AOT/AOT_stimuli/rescaled_final/1704_fw.mp4	0.0	191.198646068573	0.9915318489074707
14	160.07507801055908	pulse	0	t		12.0	2.5	/experiments/AOT/AOT_stimuli/rescaled_final/1704_fw.mp4	0.0	192.17455005645752	
14	160.09070587158203	movie	1		244	12.0	2.5	/experiments/AOT/AOT_stimuli/rescaled_final/1704_fw.mp4	0.0	192.19017791748047	2.5085461139678955
14	161.6823239326477	pulse	1	t		12.0	2.5	/experiments/AOT/AOT_stimuli/rescaled_final/1704_fw.mp4	0.0	193.78179597854614	
14	162.59925198554993	fix_post	2		12	12.0	2.5	/experiments/AOT/AOT_stimuli/rescaled_final/1704_fw.mp4	0.0	194.69872403144836	0.09989094734191895
15	162.69914293289185	fix_pre	0		120	13.0	2.5	/experiments/AOT/AOT_stimuli/rescaled_final/0966_rv.mp4	0.0	194.79861497879028	0.9999279975891113
15	163.27512907981873	pulse	0	t		13.0	2.5	/experiments/AOT/AOT_stimuli/rescaled_final/0966_rv.mp4	0.0	195.37460112571716	
15	163.69907093048096	movie	1		244	13.0	2.5	/experiments/AOT/AOT_stimuli/rescaled_final/0966_rv.mp4	0.0	195.7985429763794	2.50007700920105
15	164.87485003471375	pulse	1	t		13.0	2.5	/experiments/AOT/AOT_stimuli/rescaled_final/0966_rv.mp4	0.0	196.97432208061218	
15	166.199147939682	fix_post	2		12	13.0	2.5	/experiments/AOT/AOT_stimuli/rescaled_final/0966_rv.mp4	0.0	198.29861998558044	0.0999290943145752
16	166.29907703399658	fix_pre	0		120	14.0	2.5	blank	1.0	198.39854907989502	1.0000410079956055
16	166.47434401512146	pulse	0	t		14.0	2.5	blank	1.0	198.5738160610199	
16	167.2991180419922	movie	1		300	14.0	2.5	blank	1.0	199.39859008789062	2.500001907348633
16	168.075021982193	pulse	1	t		14.0	2.5	blank	1.0	200.17449402809143	
16	169.68261098861694	pulse	1	t		14.0	2.5	blank	1.0	201.78208303451538	
16	169.79911994934082	fix_post	2		12	14.0	2.5	blank	1.0	201.89859199523926	0.09994101524353027
17	169.89906096458435	fix_pre	0		120	15.0	2.5	/experiments/AOT/AOT_stimuli/rescaled_final/0640_rv.mp4	0.0	201.9985330104828	0.9996340274810791
17	170.89869499206543	movie	1		243	15.0	2.5	/experiments/AOT/AOT_stimuli/rescaled_final/0640_rv.mp4	0.0	202.99816703796387	2.5003199577331543
17	171.28416109085083	pulse	1	t		15.0	2.5	/experiments/AOT/AOT_stimuli/rescaled_final/0640_rv.mp4	0.0	203.38363313674927	
17	172.87514400482178	pulse	1	t		15.0	2.5	/experiments/AOT/AOT_stimuli/rescaled_final/0640_rv.mp4	0.0	204.97461605072021	
17	173.39901494979858	fix_post	2		12	15.0	2.5	/experiments/AOT/AOT_stimuli/rescaled_final/0640_rv.mp4	0.0	205.49848699569702	0.10007905960083008
18	173.4990940093994	fix_pre	0		119	16.0	2.5	/experiments/AOT/AOT_stimuli/rescaled_final/0443_fw.mp4	0.0	205.59856605529785	0.9916238784790039
18	174.4750120639801	pulse	0	t		16.0	2.5	/experiments/AOT/AOT_stimuli/rescaled_final/0443_fw.mp4	0.0	206.57448410987854	
18	174.49071788787842	movie	1		246	16.0	2.5	/experiments/AOT/AOT_stimuli/rescaled_final/0443_fw.mp4	0.0	206.59018993377686	2.508378028869629
18	176.08216500282288	pulse	1	t		16.0	2.5	/experiments/AOT/AOT_stimuli/rescaled_final/0443_fw.mp4	0.0	208.1816370487213	
18	176.99909591674805	fix_post	2		12	16.0	2.5	/experiments/AOT/AOT_stimuli/rescaled_final/0443_fw.mp4	0.0	209.09856796264648	0.09991097450256348
19	177.0990068912506	fix_pre	0		120	17.0	2.5	/experiments/AOT/AOT_stimuli/rescaled_final/1998_fw.mp4	0.0	209.19847893714905	1.0000901222229004
19	177.67504501342773	pulse	0	t		17.0	2.5	/experiments/AOT/AOT_stimuli/rescaled_final/1998_fw.mp4	0.0	209.77451705932617	
19	178.0990970134735	movie	1		243	17.0	2.5	/experiments/AOT/AOT_stimuli/rescaled_final/1998_fw.mp4	0.0	210.19856905937195	2.499897003173828
19	179.2826008796692	pulse	1	t		17.0	2.5	/experiments/AOT/AOT_stimuli/rescaled_final/1998_fw.mp4	0.0	211.38207292556763	
19	180.59899401664734	fix_post	2		12	17.0	2.5	/experiments/AOT/AOT_stimuli/rescaled_final/1998_fw.mp4	0.0	212.69846606254578	0.10006189346313477
20	180.69905591011047	fix_pre	0		120	18.0	2.5	/experiments/AOT/AOT_stimuli/rescaled_final/1251_rv.mp4	0.0	212.7985279560089	0.9999661445617676
20	180.87498307228088	pulse	0	t		18.0	2.5	/experiments/AOT/AOT_stimuli/rescaled_final/1251_rv.mp4	0.0	212.97445511817932	
20	181.69902205467224	movie	1		243	18.0	2.5	/experiments/AOT/AOT_stimuli/rescaled_final/1251_rv.mp4	0.0	213.79849410057068	2.5000009536743164
20	182.47508907318115	pulse	1	t		18.0	2.5	/experiments/AOT/AOT_stimuli/rescaled_final/1251_rv.mp4	0.0	214.5745611190796	
20	184.08084988594055	pulse	1	t		18.0	2.5	/experiments/AOT/AOT_stimuli/rescaled_final/1251_rv.mp4	0.0	216.180321931839	
20	184.19902300834656	fix_post	2		12	18.0	2.5	/experiments/AOT/AOT_stimuli/rescaled_final/1251_rv.mp4	0.0	216.298495054245	0.09995007514953613
21	184.2989730834961	fix_pre	0		120	19.0	2.5	/experiments/AOT/AOT_stimuli/rescaled_final/1753_fw.mp4	0.0	216.39844512939453	1.0000460147857666
21	185.29901909828186	movie	1		243	19.0	2.5	/experiments/AOT/AOT_stimuli/rescaled_final/1753_fw.mp4	0.0	217.3984911441803	2.499964952468872
21	185.6823320388794	pulse	1	t		19.0	2.5	/experiments/AOT/AOT_stimuli/rescaled_final/1753_fw.mp4	0.0	217.78180408477783	
21	187.2751429080963	pulse	1	t		19.0	2.5	/experiments/AOT/AOT_stimuli/rescaled_final/1753_fw.mp4	0.0	219.37461495399475	
21	187.79898405075073	fix_post	2		12	19.0	2.5	/experiments/AOT/AOT_stimuli/rescaled_final/1753_fw.mp4	0.0	219.89845609664917	0.10006093978881836
22	187.89904499053955	fix_pre	0		119	20.0	2.5	/experiments/AOT/AOT_stimuli/rescaled_final/1932_rv.mp4	0.0	219.998517036438	0.9916279315948486
22	188.88238191604614	pulse	0	t		20.0	2.5	/experiments/AOT/AOT_stimuli/rescaled_final/1932_rv.mp4	0.0	220.98185396194458	
22	188.8906729221344	movie	1		246	20.0	2.5	/experiments/AOT/AOT_stimuli/rescaled_final/1932_rv.mp4	0.0	220.99014496803284	2.5083131790161133
22	190.48238587379456	pulse	1	t		20.0	2.5	/experiments/AOT/AOT_stimuli/rescaled_final/1932_rv.mp4	0.0	222.581857919693	
22	191.3989861011505	fix_post	2		12	20.0	2.5	/experiments/AOT/AOT_stimuli/rescaled_final/1932_rv.mp4	0.0	223.49845814704895	0.10006880760192871
23	191.49905490875244	fix_pre	0		120	21.0	2.5	blank	1.0	223.59852695465088	0.9999849796295166
23	192.074933052063	pulse	0	t		21.0	2.5	blank	1.0	224.17440509796143	
23	192.49903988838196	movie	1		300	21.0	2.5	blank	1.0	224.5985119342804	2.499917984008789
23	193.67493295669556	pulse	1	t		21.0	2.5	blank	1.0	225.774405002594	
23	194.99895787239075	fix_post	2		12	21.0	2.5	blank	1.0	227.09842991828918	0.10005021095275879
24	195.0990080833435	fix_pre	0		120	22.0	2.5	/experiments/AOT/AOT_stimuli/rescaled_final/1616_fw.mp4	0.0	227.19848012924194	0.9999539852142334
24	195.27497005462646	pulse	0	t		22.0	2.5	/experiments/AOT/AOT_stimuli/rescaled_final/1616_fw.mp4	0.0	227.3744421005249	
24	196.09896206855774	movie	1		244	22.0	2.5	/experiments/AOT/AOT_stimuli/rescaled_final/1616_fw.mp4	0.0	228.19843411445618	2.5000898838043213
24	196.87502789497375	pulse	1	t		22.0	2.5	/experiments/AOT/AOT_stimuli/rescaled_final/1616_fw.mp4	0.0	228.9744999408722	
24	198.47994995117188	pulse	1	t		22.0	2.5	/experiments/AOT/AOT_stimuli/rescaled_final/1616_fw.mp4	0.0	230.5794219970703	
24	198.59905195236206	fix_post	2		12	22.0	2.5	/experiments/AOT/AOT_stimuli/rescaled_final/1616_fw.mp4	0.0	230.6985239982605	0.0999150276184082
25	198.69896697998047	fix_pre	0		120	23.0	2.5	/experiments/AOT/AOT_stimuli/rescaled_final/1689_fw.mp4	0.0	230.7984390258789	0.9997029304504395
25	199.6986699104309	movie	1		247	23.0	2.5	/experiments/AOT/AOT_stimuli/rescaled_final/1689_fw.mp4	0.0	231.79814195632935	2.50026798248291
25	200.0822958946228	pulse	1	t		23.0	2.5	/experiments/AOT/AOT_stimuli/rescaled_final/1689_fw.mp4	0.0	232.18176794052124	
25	201.68240189552307	pulse	1	t		23.0	2.5	/experiments/AOT/AOT_stimuli/rescaled_final/1689_fw.mp4	0.0	233.7818739414215	
25	202.19893789291382	fix_post	2		12	23.0	2.5	/experiments/AOT/AOT_stimuli/rescaled_final/1689_fw.mp4	0.0	234.29840993881226	0.10004019737243652
26	202.29897809028625	fix_pre	0		119	24.0	2.5	/experiments/AOT/AOT_stimuli/rescaled_final/1086_rv.mp4	0.0	234.3984501361847	0.9916098117828369
26	203.2824580669403	pulse	0	t		24.0	2.5	/experiments/AOT/AOT_stimuli/rescaled_final/1086_rv.mp4	0.0	235.38193011283875	
26	203.2905879020691	movie	1		245	24.0	2.5	/experiments/AOT/AOT_stimuli/rescaled_final/1086_rv.mp4	0.0	235.39005994796753	2.508287191390991
26	204.88213109970093	pulse	1	t		24.0	2.5	/experiments/AOT/AOT_stimuli/rescaled_final/1086_rv.mp4	0.0	236.98160314559937	
26	205.79887509346008	fix_post	2		12	24.0	2.5	/experiments/AOT/AOT_stimuli/rescaled_final/1086_rv.mp4	0.0	237.89834713935852	0.0997159481048584
27	205.89859104156494	fix_pre	0		120	25.0	2.5	/experiments/AOT/AOT_stimuli/rescaled_final/0413_fw.mp4	0.0	237.99806308746338	1.000309944152832
27	206.4823760986328	pulse	0	t		25.0	2.5	/experiments/AOT/AOT_stimuli/rescaled_final/0413_fw.mp4	0.0	238.58184814453125	
27	206.89890098571777	movie	1		244	25.0	2.5	/experiments/AOT/AOT_stimuli/rescaled_final/0413_fw.mp4	0.0	238.9983730316162	2.5000081062316895
27	208.08235788345337	pulse	1	t		25.0	2.5	/experiments/AOT/AOT_stimuli/rescaled_final/0413_fw.mp4	0.0	240.1818299293518	
27	209.39890909194946	fix_post	2		12	25.0	2.5	/experiments/AOT/AOT_stimuli/rescaled_final/0413_fw.mp4	0.0	241.4983811378479	0.10000896453857422
28	209.49891805648804	fix_pre	0		120	26.0	2.5	/experiments/AOT/AOT_stimuli/rescaled_final/1702_fw.mp4	0.0	241.59839010238647	0.9999728202819824
28	209.67490792274475	pulse	0	t		26.0	2.5	/experiments/AOT/AOT_stimuli/rescaled_final/1702_fw.mp4	0.0	241.7743799686432	
28	210.49889087677002	movie	1		242	26.0	2.5	/experiments/AOT/AOT_stimuli/rescaled_final/1702_fw.mp4	0.0	242.59836292266846	2.5000391006469727
28	211.27498197555542	pulse	1	t		26.0	2.5	/experiments/AOT/AOT_stimuli/rescaled_final/1702_fw.mp4	0.0	243.37445402145386	
28	212.88054394721985	pulse	1	t		26.0	2.5	/experiments/AOT/AOT_stimuli/rescaled_final/1702_fw.mp4	0.0	244.9800159931183	
28	212.998929977417	fix_post	2		12	26.0	2.5	/experiments/AOT/AOT_stimuli/rescaled_final/1702_fw.mp4	0.0	245.09840202331543	0.09993696212768555
29	213.09886693954468	fix_pre	0		120	27.0	2.5	blank	1.0	245.19833898544312	0.9999959468841553
29	214.09886288642883	movie	1		300	27.0	2.5	blank	1.0	246.19833493232727	2.5000710487365723
29	214.47491693496704	pulse	1	t		27.0	2.5	blank	1.0	246.57438898086548	
29	216.07497310638428	pulse	1	t		27.0	2.5	blank	1.0	248.17444515228271	
29	216.5989339351654	fix_post	2		12	27.0	2.5	blank	1.0	248.69840598106384	0.099884033203125
30	216.69881796836853	fix_pre	0		119	28.0	2.5	/experiments/AOT/AOT_stimuli/rescaled_final/1587_rv.mp4	0.0	248.79829001426697	0.9916410446166992
30	217.68237209320068	pulse	0	t		28.0	2.5	/experiments/AOT/AOT_stimuli/rescaled_final/1587_rv.mp4	0.0	249.78184413909912	
30	217.69045901298523	movie	1		247	28.0	2.5	/experiments/AOT/AOT_stimuli/rescaled_final/1587_rv.mp4	0.0	249.78993105888367	2.508388042449951
30	219.28200006484985	pulse	1	t		28.0	2.5	/experiments/AOT/AOT_stimuli/rescaled_final/1587_rv.mp4	0.0	251.3814721107483	
30	220.19884705543518	fix_post	2		12	28.0	2.5	/experiments/AOT/AOT_stimuli/rescaled_final/1587_rv.mp4	0.0	252.29831910133362	0.09957695007324219
31	220.29842400550842	fix_pre	0		120	29.0	2.5	/experiments/AOT/AOT_stimuli/rescaled_final/0679_fw.mp4	0.0	252.39789605140686	1.0004370212554932
31	220.88234400749207	pulse	0	t		29.0	2.5	/experiments/AOT/AOT_stimuli/rescaled_final/0679_fw.mp4	0.0	252.9818160533905	
31	221.29886102676392	movie	1		245	29.0	2.5	/experiments/AOT/AOT_stimuli/rescaled_final/0679_fw.mp4	0.0	253.39833307266235	2.4999818801879883
31	222.48240399360657	pulse	1	t		29.0	2.5	/experiments/AOT/AOT_stimuli/rescaled_final/0679_fw.mp4	0.0	254.581876039505	
31	223.7988429069519	fix_post	2		12	29.0	2.5	/experiments/AOT/AOT_stimuli/rescaled_final/0679_fw.mp4	0.0	255.89831495285034	0.10005807876586914
32	223.89890098571777	fix_pre	0		120	30.0	2.5	/experiments/AOT/AOT_stimuli/rescaled_final/0272_rv.mp4	0.0	255.9983730316162	0.9998691082000732
32	224.0824840068817	pulse	0	t		30.0	2.5	/experiments/AOT/AOT_stimuli/rescaled_final/0272_rv.mp4	0.0	256.18195605278015	
32	224.89877009391785	movie	1		243	30.0	2.5	/experiments/AOT/AOT_stimuli/rescaled_final/0272_rv.mp4	0.0	256.9982421398163	2.4999639987945557
32	225.67491388320923	pulse	1	t		30.0	2.5	/experiments/AOT/AOT_stimuli/rescaled_final/0272_rv.mp4	0.0	257.77438592910767	
32	227.28061604499817	pulse	1	t		30.0	2.5	/experiments/AOT/AOT_stimuli/rescaled_final/0272_rv.mp4	0.0	259.3800880908966	
32	227.3987340927124	fix_post	2		12	30.0	2.5	/experiments/AOT/AOT_stimuli/rescaled_final/0272_rv.mp4	0.0	259.49820613861084	0.10009980201721191
33	227.49883389472961	fix_pre	0		120	31.0	2.5	/experiments/AOT/AOT_stimuli/rescaled_final/1290_fw.mp4	0.0	259.59830594062805	1.0000131130218506
33	228.49884700775146	movie	1		245	31.0	2.5	/experiments/AOT/AOT_stimuli/rescaled_final/1290_fw.mp4	0.0	260.5983190536499	2.499985933303833
33	228.88186597824097	pulse	1	t		31.0	2.5	/experiments/AOT/AOT_stimuli/rescaled_final/1290_fw.mp4	0.0	260.9813380241394	
33	230.4748980998993	pulse	1	t		31.0	2.5	/experiments/AOT/AOT_stimuli/rescaled_final/1290_fw.mp4	0.0	262.57437014579773	
33	230.9988329410553	fix_post	2		12	31.0	2.5	/experiments/AOT/AOT_stimuli/rescaled_final/1290_fw.mp4	0.0	263.09830498695374	0.09992599487304688
34	231.09875893592834	fix_pre	0		117	32.0	2.5	/experiments/AOT/AOT_stimuli/rescaled_final/0027_rv.mp4	0.0	263.1982309818268	0.9916970729827881
34	232.07479691505432	pulse	0	t		32.0	2.5	/experiments/AOT/AOT_stimuli/rescaled_final/0027_rv.mp4	0.0	264.17426896095276	
34	232.09045600891113	movie	1		244	32.0	2.5	/experiments/AOT/AOT_stimuli/rescaled_final/0027_rv.mp4	0.0	264.18992805480957	2.508307933807373
34	233.68236589431763	pulse	1	t		32.0	2.5	/experiments/AOT/AOT_stimuli/rescaled_final/0027_rv.mp4	0.0	265.78183794021606	
34	234.5987639427185	fix_post	2		12	32.0	2.5	/experiments/AOT/AOT_stimuli/rescaled_final/0027_rv.mp4	0.0	266.69823598861694	0.1000051498413086
35	234.69876909255981	fix_pre	0		120	33.0	2.5	blank	1.0	266.79824113845825	0.9999690055847168
35	235.282301902771	pulse	0	t		33.0	2.5	blank	1.0	267.38177394866943	
35	235.69873809814453	movie	1		300	33.0	2.5	blank	1.0	267.79821014404297	2.499943971633911
35	236.88229894638062	pulse	1	t		33.0	2.5	blank	1.0	268.98177099227905	
35	238.19868206977844	fix_post	2		12	33.0	2.5	blank	1.0	270.2981541156769	0.10001492500305176
36	238.2986969947815	fix_pre	0		120	34.0	2.5	/experiments/AOT/AOT_stimuli/rescaled_final/1928_rv.mp4	0.0	270.39816904067993	1.0000801086425781
36	238.48216700553894	pulse	0	t		34.0	2.5	/experiments/AOT/AOT_stimuli/rescaled_final/1928_rv.mp4	0.0	270.5816390514374	
36	239.29877710342407	movie	1		246	34.0	2.5	/experiments/AOT/AOT_stimuli/rescaled_final/1928_rv.mp4	0.0	271.3982491493225	2.4998509883880615
36	240.08221888542175	pulse	1	t		34.0	2.5	/experiments/AOT/AOT_stimuli/rescaled_final/1928_rv.mp4	0.0	272.1816909313202	
36	241.68090200424194	pulse	1	t		34.0	2.5	/experiments/AOT/AOT_stimuli/rescaled_final/1928_rv.mp4	0.0	273.7803740501404	
36	241.79862809181213	fix_post	2		12	34.0	2.5	/experiments/AOT/AOT_stimuli/rescaled_final/1928_rv.mp4	0.0	273.89810013771057	0.10009980201721191
37	241.89872789382935	fix_pre	0		120	35.0	2.5	/experiments/AOT/AOT_stimuli/rescaled_final/0647_rv.mp4	0.0	273.9981999397278	1.0000221729278564
37	242.8987500667572	movie	1		245	35.0	2.5	/experiments/AOT/AOT_stimuli/rescaled_final/0647_rv.mp4	0.0	274.99822211265564	2.4999840259552
37	243.2816309928894	pulse	1	t		35.0	2.5	/experiments/AOT/AOT_stimuli/rescaled_final/0647_rv.mp4	0.0	275.38110303878784	
37	244.87484908103943	pulse	1	t		35.0	2.5	/experiments/AOT/AOT_stimuli/rescaled_final/0647_rv.mp4	0.0	276.97432112693787	
37	245.3987340927124	fix_post	2		12	35.0	2.5	/experiments/AOT/AOT_stimuli/rescaled_final/0647_rv.mp4	0.0	277.49820613861084	0.1000359058380127
38	245.49876999855042	fix_pre	0		119	36.0	2.5	/experiments/AOT/AOT_stimuli/rescaled_final/2130_fw.mp4	0.0	277.59824204444885	0.991563081741333
38	246.47470688819885	pulse	0	t		36.0	2.5	/experiments/AOT/AOT_stimuli/rescaled_final/2130_fw.mp4	0.0	278.5741789340973	
38	246.49033308029175	movie	1		248	36.0	2.5	/experiments/AOT/AOT_stimuli/rescaled_final/2130_fw.mp4	0.0	278.5898051261902	2.508375883102417
38	248.0831389427185	pulse	1	t		36.0	2.5	/experiments/AOT/AOT_stimuli/rescaled_final/2130_fw.mp4	0.0	280.18261098861694	
38	248.99870896339417	fix_post	2		12	36.0	2.5	/experiments/AOT/AOT_stimuli/rescaled_final/2130_fw.mp4	0.0	281.0981810092926	0.1000211238861084
39	249.09873008728027	fix_pre	0		120	37.0	2.5	/experiments/AOT/AOT_stimuli/rescaled_final/2124_rv.mp4	0.0	281.1982021331787	0.9999430179595947
39	249.6835150718689	pulse	0	t		37.0	2.5	/experiments/AOT/AOT_stimuli/rescaled_final/2124_rv.mp4	0.0	281.78298711776733	
39	250.09867310523987	movie	1		244	37.0	2.5	/experiments/AOT/AOT_stimuli/rescaled_final/2124_rv.mp4	0.0	282.1981451511383	2.500004768371582
39	251.28235292434692	pulse	1	t		37.0	2.5	/experiments/AOT/AOT_stimuli/rescaled_final/2124_rv.mp4	0.0	283.38182497024536	
39	252.59867787361145	fix_post	2		12	37.0	2.5	/experiments/AOT/AOT_stimuli/rescaled_final/2124_rv.mp4	0.0	284.6981499195099	0.10002422332763672
40	252.6987020969391	fix_pre	0		120	38.0	2.5	/experiments/AOT/AOT_stimuli/rescaled_final/0840_rv.mp4	0.0	284.7981741428375	0.9995899200439453
40	252.88221287727356	pulse	0	t		38.0	2.5	/experiments/AOT/AOT_stimuli/rescaled_final/0840_rv.mp4	0.0	284.981684923172	
40	253.69829201698303	movie	1		244	38.0	2.5	/experiments/AOT/AOT_stimuli/rescaled_final/0840_rv.mp4	0.0	285.79776406288147	2.500633955001831
40	254.48172187805176	pulse	1	t		38.0	2.5	/experiments/AOT/AOT_stimuli/rescaled_final/0840_rv.mp4	0.0	286.5811939239502	
40	256.0811700820923	pulse	1	t		38.0	2.5	/experiments/AOT/AOT_stimuli/rescaled_final/0840_rv.mp4	0.0	288.1806421279907	
40	256.19892597198486	fix_post	2		12	38.0	2.5	/experiments/AOT/AOT_stimuli/rescaled_final/0840_rv.mp4	0.0	288.2983980178833	0.09963393211364746
41	256.2985599040985	fix_pre	0		120	39.0	2.5	/experiments/AOT/AOT_stimuli/rescaled_final/1168_fw.mp4	0.0	288.39803194999695	1.0001649856567383
41	257.29872488975525	movie	1		244	39.0	2.5	/experiments/AOT/AOT_stimuli/rescaled_final/1168_fw.mp4	0.0	289.3981969356537	2.499920129776001
41	257.681706905365	pulse	1	t		39.0	2.5	/experiments/AOT/AOT_stimuli/rescaled_final/1168_fw.mp4	0.0	289.7811789512634	
41	259.2747919559479	pulse	1	t		39.0	2.5	/experiments/AOT/AOT_stimuli/rescaled_final/1168_fw.mp4	0.0	291.3742640018463	
41	259.79864501953125	fix_post	2		12	39.0	2.5	/experiments/AOT/AOT_stimuli/rescaled_final/1168_fw.mp4	0.0	291.8981170654297	0.10004591941833496
42	259.8986909389496	fix_pre	0		119	40.0	2.5	/experiments/AOT/AOT_stimuli/rescaled_final/1845_fw.mp4	0.0	291.998162984848	0.991569995880127
42	260.8746678829193	pulse	0	t		40.0	2.5	/experiments/AOT/AOT_stimuli/rescaled_final/1845_fw.mp4	0.0	292.97413992881775	
42	260.8902609348297	movie	1		245	40.0	2.5	/experiments/AOT/AOT_stimuli/rescaled_final/1845_fw.mp4	0.0	292.98973298072815	2.5082831382751465
42	262.4815790653229	pulse	1	t		40.0	2.5	/experiments/AOT/AOT_stimuli/rescaled_final/1845_fw.mp4	0.0	294.5810511112213	
42	263.39854407310486	fix_post	2		12	40.0	2.5	/experiments/AOT/AOT_stimuli/rescaled_final/1845_fw.mp4	0.0	295.4980161190033	0.10011887550354004
43	263.4986629486084	fix_pre	0		120	41.0	2.5	blank	1.0	295.59813499450684	0.9999270439147949
43	264.07457995414734	pulse	0	t		41.0	2.5	blank	1.0	296.1740520000458	
43	264.4985899925232	movie	1		300	41.0	2.5	blank	1.0	296.59806203842163	2.5000391006469727
43	265.6821229457855	pulse	1	t		41.0	2.5	blank	1.0	297.78159499168396	
43	266.99862909317017	fix_post	2		12	41.0	2.5	blank	1.0	299.0981011390686	0.09995293617248535
44	267.09858202934265	fix_pre	0		120	42.0	2.5	/experiments/AOT/AOT_stimuli/rescaled_final/1120_fw.mp4	0.0	299.1980540752411	1.0000250339508057
44	267.28212690353394	pulse	0	t		42.0	2.5	/experiments/AOT/AOT_stimuli/rescaled_final/1120_fw.mp4	0.0	299.3815989494324	
44	268.09860706329346	movie	1		243	42.0	2.5	/experiments/AOT/AOT_stimuli/rescaled_final/1120_fw.mp4	0.0	300.1980791091919	2.4999899864196777
44	268.87524700164795	pulse	1	t		42.0	2.5	/experiments/AOT/AOT_stimuli/rescaled_final/1120_fw.mp4	0.0	300.9747190475464	
44	270.48099303245544	pulse	1	t		42.0	2.5	/experiments/AOT/AOT_stimuli/rescaled_final/1120_fw.mp4	0.0	302.5804650783539	
44	270.59859704971313	fix_post	2		12	42.0	2.5	/experiments/AOT/AOT_stimuli/rescaled_final/1120_fw.mp4	0.0	302.6980690956116	0.09996700286865234
45	270.6985640525818	fix_pre	0		120	43.0	2.5	/experiments/AOT/AOT_stimuli/rescaled_final/1991_rv.mp4	0.0	302.7980360984802	0.999626874923706
45	271.6981909275055	movie	1		243	43.0	2.5	/experiments/AOT/AOT_stimuli/rescaled_final/1991_rv.mp4	0.0	303.79766297340393	2.500399112701416
45	272.08166790008545	pulse	1	t		43.0	2.5	/experiments/AOT/AOT_stimuli/rescaled_final/1991_rv.mp4	0.0	304.1811399459839	
45	273.6820969581604	pulse	1	t		43.0	2.5	/experiments/AOT/AOT_stimuli/rescaled_final/1991_rv.mp4	0.0	305.78156900405884	
45	274.1985900402069	fix_post	2		12	43.0	2.5	/experiments/AOT/AOT_stimuli/rescaled_final/1991_rv.mp4	0.0	306.29806208610535	0.10002303123474121
46	274.29861307144165	fix_pre	0		119	44.0	2.5	/experiments/AOT/AOT_stimuli/rescaled_final/1165_fw.mp4	0.0	306.3980851173401	0.9916470050811768
46	275.2821168899536	pulse	0	t		44.0	2.5	/experiments/AOT/AOT_stimuli/rescaled_final/1165_fw.mp4	0.0	307.38158893585205	
46	275.2902600765228	movie	1		245	44.0	2.5	/experiments/AOT/AOT_stimuli/rescaled_final/1165_fw.mp4	0.0	307.38973212242126	2.508227825164795
46	276.8819229602814	pulse	1	t		44.0	2.5	/experiments/AOT/AOT_stimuli/rescaled_final/1165_fw.mp4	0.0	308.9813950061798	
46	277.7984879016876	fix_post	2		12	44.0	2.5	/experiments/AOT/AOT_stimuli/rescaled_final/1165_fw.mp4	0.0	309.89795994758606	0.10001516342163086
47	277.89850306510925	fix_pre	0		120	45.0	2.5	/experiments/AOT/AOT_stimuli/rescaled_final/1854_rv.mp4	0.0	309.9979751110077	1.00006103515625
47	278.47447896003723	pulse	0	t		45.0	2.5	/experiments/AOT/AOT_stimuli/rescaled_final/1854_rv.mp4	0.0	310.57395100593567	
47	278.8985641002655	movie	1		242	45.0	2.5	/experiments/AOT/AOT_stimuli/rescaled_final/1854_rv.mp4	0.0	310.99803614616394	2.500016927719116
47	280.08220410346985	pulse	1	t		45.0	2.5	/experiments/AOT/AOT_stimuli/rescaled_final/1854_rv.mp4	0.0	312.1816761493683	
47	281.3985810279846	fix_post	2		12	45.0	2.5	/experiments/AOT/AOT_stimuli/rescaled_final/1854_rv.mp4	0.0	313.49805307388306	0.10002589225769043
48	281.4986069202423	fix_pre	0		120	46.0	2.5	/experiments/AOT/AOT_stimuli/rescaled_final/0626_fw.mp4	0.0	313.59807896614075	0.9998979568481445
48	281.6821188926697	pulse	0	t		46.0	2.5	/experiments/AOT/AOT_stimuli/rescaled_final/0626_fw.mp4	0.0	313.7815909385681	
48	282.49850487709045	movie	1		247	46.0	2.5	/experiments/AOT/AOT_stimuli/rescaled_final/0626_fw.mp4	0.0	314.5979769229889	2.500030040740967
48	283.2820088863373	pulse	1	t		46.0	2.5	/experiments/AOT/AOT_stimuli/rescaled_final/0626_fw.mp4	0.0	315.3814809322357	
48	284.8815670013428	pulse	1	t		46.0	2.5	/experiments/AOT/AOT_stimuli/rescaled_final/0626_fw.mp4	0.0	316.9810390472412	
48	284.9985349178314	fix_post	2		12	46.0	2.5	/experiments/AOT/AOT_stimuli/rescaled_final/0626_fw.mp4	0.0	317.09800696372986	0.10002398490905762
49	285.0985589027405	fix_pre	0		120	47.0	2.5	/experiments/AOT/AOT_stimuli/rescaled_final/0864_fw.mp4	0.0	317.1980309486389	0.9999611377716064
49	286.0985200405121	movie	1		246	47.0	2.5	/experiments/AOT/AOT_stimuli/rescaled_final/0864_fw.mp4	0.0	318.1979920864105	2.4999208450317383
49	286.48167300224304	pulse	1	t		47.0	2.5	/experiments/AOT/AOT_stimuli/rescaled_final/0864_fw.mp4	0.0	318.5811450481415	
49	288.08199405670166	pulse	1	t		47.0	2.5	/experiments/AOT/AOT_stimuli/rescaled_final/0864_fw.mp4	0.0	320.1814661026001	
49	288.5984408855438	fix_post	2		12	47.0	2.5	/experiments/AOT/AOT_stimuli/rescaled_final/0864_fw.mp4	0.0	320.69791293144226	0.10006904602050781
50	288.69850993156433	fix_pre	0		119	48.0	2.5	blank	1.0	320.79798197746277	0.9916739463806152
50	289.6820249557495	pulse	0	t		48.0	2.5	blank	1.0	321.78149700164795	
50	289.69018387794495	movie	1		301	48.0	2.5	blank	1.0	321.7896559238434	2.5083181858062744
50	291.2820038795471	pulse	1	t		48.0	2.5	blank	1.0	323.38147592544556	
50	292.1985020637512	fix_post	2		12	48.0	2.5	blank	1.0	324.29797410964966	0.10001897811889648
51	292.2985210418701	fix_pre	0		120	49.0	2.5	/experiments/AOT/AOT_stimuli/rescaled_final/2020_rv.mp4	0.0	324.39799308776855	0.9999330043792725
51	292.874675989151	pulse	0	t		49.0	2.5	/experiments/AOT/AOT_stimuli/rescaled_final/2020_rv.mp4	0.0	324.97414803504944	
51	293.2984540462494	movie	1		243	49.0	2.5	/experiments/AOT/AOT_stimuli/rescaled_final/2020_rv.mp4	0.0	325.3979260921478	2.5000598430633545
51	294.48204588890076	pulse	1	t		49.0	2.5	/experiments/AOT/AOT_stimuli/rescaled_final/2020_rv.mp4	0.0	326.5815179347992	
51	295.79851388931274	fix_post	2		12	49.0	2.5	/experiments/AOT/AOT_stimuli/rescaled_final/2020_rv.mp4	0.0	327.8979859352112	0.09999799728393555
52	295.8985118865967	fix_pre	0		120	50.0	2.5	/experiments/AOT/AOT_stimuli/rescaled_final/0285_fw.mp4	0.0	327.9979839324951	0.9999701976776123
52	296.08198595046997	pulse	0	t		50.0	2.5	/experiments/AOT/AOT_stimuli/rescaled_final/0285_fw.mp4	0.0	328.1814579963684	
52	296.8984820842743	movie	1		243	50.0	2.5	/experiments/AOT/AOT_stimuli/rescaled_final/0285_fw.mp4	0.0	328.99795413017273	2.500041961669922
52	297.68198704719543	pulse	1	t		50.0	2.5	/experiments/AOT/AOT_stimuli/rescaled_final/0285_fw.mp4	0.0	329.7814590930939	
52	299.2802469730377	pulse	1	t		50.0	2.5	/experiments/AOT/AOT_stimuli/rescaled_final/0285_fw.mp4	0.0	331.37971901893616	
52	299.3985240459442	fix_post	2		12	50.0	2.5	/experiments/AOT/AOT_stimuli/rescaled_final/0285_fw.mp4	0.0	331.49799609184265	0.09992694854736328
53	299.4984509944916	fix_pre	0		120	51.0	2.5	/experiments/AOT/AOT_stimuli/rescaled_final/1928_fw.mp4	0.0	331.59792304039	0.9999380111694336
53	300.498389005661	movie	1		244	51.0	2.5	/experiments/AOT/AOT_stimuli/rescaled_final/1928_fw.mp4	0.0	332.59786105155945	2.5000059604644775
53	300.8830120563507	pulse	1	t		51.0	2.5	/experiments/AOT/AOT_stimuli/rescaled_final/1928_fw.mp4	0.0	332.98248410224915	
53	302.48189902305603	pulse	1	t		51.0	2.5	/experiments/AOT/AOT_stimuli/rescaled_final/1928_fw.mp4	0.0	334.58137106895447	
53	302.9983949661255	fix_post	2		12	51.0	2.5	/experiments/AOT/AOT_stimuli/rescaled_final/1928_fw.mp4	0.0	335.0978670120239	0.10006904602050781
54	303.098464012146	fix_pre	0		119	52.0	2.5	/experiments/AOT/AOT_stimuli/rescaled_final/1854_fw.mp4	0.0	335.19793605804443	0.9915919303894043
54	304.08191990852356	pulse	0	t		52.0	2.5	/experiments/AOT/AOT_stimuli/rescaled_final/1854_fw.mp4	0.0	336.181391954422	
54	304.0900559425354	movie	1		244	52.0	2.5	/experiments/AOT/AOT_stimuli/rescaled_final/1854_fw.mp4	0.0	336.18952798843384	2.5084049701690674
54	305.68166399002075	pulse	1	t		52.0	2.5	/experiments/AOT/AOT_stimuli/rescaled_final/1854_fw.mp4	0.0	337.7811360359192	
54	306.59846091270447	fix_post	2		12	52.0	2.5	/experiments/AOT/AOT_stimuli/rescaled_final/1854_fw.mp4	0.0	338.6979329586029	0.09995412826538086
55	306.69841504096985	fix_pre	0		120	53.0	2.5	/experiments/AOT/AOT_stimuli/rescaled_final/1702_rv.mp4	0.0	338.7978870868683	1.000114917755127
55	307.2820448875427	pulse	0	t		53.0	2.5	/experiments/AOT/AOT_stimuli/rescaled_final/1702_rv.mp4	0.0	339.38151693344116	
55	307.698529958725	movie	1		245	53.0	2.5	/experiments/AOT/AOT_stimuli/rescaled_final/1702_rv.mp4	0.0	339.7980020046234	2.4994490146636963
55	308.88193798065186	pulse	1	t		53.0	2.5	/experiments/AOT/AOT_stimuli/rescaled_final/1702_rv.mp4	0.0	340.9814100265503	
55	310.1979789733887	fix_post	2		12	53.0	2.5	/experiments/AOT/AOT_stimuli/rescaled_final/1702_rv.mp4	0.0	342.2974510192871	0.10006904602050781
56	310.2980480194092	fix_pre	0		120	54.0	2.5	/experiments/AOT/AOT_stimuli/rescaled_final/1209_rv.mp4	0.0	342.3975200653076	1.0005600452423096
56	310.48155999183655	pulse	0	t		54.0	2.5	/experiments/AOT/AOT_stimuli/rescaled_final/1209_rv.mp4	0.0	342.581032037735	
56	311.2986080646515	movie	1		245	54.0	2.5	/experiments/AOT/AOT_stimuli/rescaled_final/1209_rv.mp4	0.0	343.3980801105499	2.4997899532318115
56	312.0821170806885	pulse	1	t		54.0	2.5	/experiments/AOT/AOT_stimuli/rescaled_final/1209_rv.mp4	0.0	344.1815891265869	
56	313.68057107925415	pulse	1	t		54.0	2.5	/experiments/AOT/AOT_stimuli/rescaled_final/1209_rv.mp4	0.0	345.7800431251526	
56	313.7983980178833	fix_post	2		12	54.0	2.5	/experiments/AOT/AOT_stimuli/rescaled_final/1209_rv.mp4	0.0	345.89787006378174	0.1000058650970459
57	313.89840388298035	fix_pre	0		120	55.0	2.5	blank	1.0	345.9978759288788	1.0000510215759277
57	314.8984549045563	movie	1		300	55.0	2.5	blank	1.0	346.9979269504547	2.499901056289673
57	315.28186798095703	pulse	1	t		55.0	2.5	blank	1.0	347.38134002685547	
57	316.8818418979645	pulse	1	t		55.0	2.5	blank	1.0	348.9813139438629	
57	317.39835596084595	fix_post	2		12	55.0	2.5	blank	1.0	349.4978280067444	0.10007309913635254
58	317.4984290599823	fix_pre	0		119	56.0	2.5	/experiments/AOT/AOT_stimuli/rescaled_final/0588_fw.mp4	0.0	349.59790110588074	0.9917140007019043
58	318.4817979335785	pulse	0	t		56.0	2.5	/experiments/AOT/AOT_stimuli/rescaled_final/0588_fw.mp4	0.0	350.58126997947693	
58	318.4901430606842	movie	1		244	56.0	2.5	/experiments/AOT/AOT_stimuli/rescaled_final/0588_fw.mp4	0.0	350.58961510658264	2.5083649158477783
58	320.0813789367676	pulse	1	t		56.0	2.5	/experiments/AOT/AOT_stimuli/rescaled_final/0588_fw.mp4	0.0	352.180850982666	
58	320.998507976532	fix_post	2		12	56.0	2.5	/experiments/AOT/AOT_stimuli/rescaled_final/0588_fw.mp4	0.0	353.0979800224304	0.09978294372558594
59	321.09829092025757	fix_pre	0		120	57.0	2.5	/experiments/AOT/AOT_stimuli/rescaled_final/0647_rv.mp4	0.0	353.197762966156	1.000063180923462
59	321.68177008628845	pulse	0	t		57.0	2.5	/experiments/AOT/AOT_stimuli/rescaled_final/0647_rv.mp4	0.0	353.7812421321869	
59	322.09835410118103	movie	1		245	57.0	2.5	/experiments/AOT/AOT_stimuli/rescaled_final/0647_rv.mp4	0.0	354.19782614707947	2.4999728202819824
59	323.28180503845215	pulse	1	t		57.0	2.5	/experiments/AOT/AOT_stimuli/rescaled_final/0647_rv.mp4	0.0	355.3812770843506	
59	324.598326921463	fix_post	2		12	57.0	2.5	/experiments/AOT/AOT_stimuli/rescaled_final/0647_rv.mp4	0.0	356.69779896736145	0.10004997253417969
60	324.6983768939972	fix_pre	0		120	58.0	2.5	/experiments/AOT/AOT_stimuli/rescaled_final/0909_fw.mp4	0.0	356.79784893989563	0.9999871253967285
60	324.8818130493164	pulse	0	t		58.0	2.5	/experiments/AOT/AOT_stimuli/rescaled_final/0909_fw.mp4	0.0	356.98128509521484	
60	325.6983640193939	movie	1		247	58.0	2.5	/experiments/AOT/AOT_stimuli/rescaled_final/0909_fw.mp4	0.0	357.79783606529236	2.4999618530273438
60	326.48173093795776	pulse	1	t		58.0	2.5	/experiments/AOT/AOT_stimuli/rescaled_final/0909_fw.mp4	0.0	358.5812029838562	
60	328.0778429508209	pulse	1	t		58.0	2.5	/experiments/AOT/AOT_stimuli/rescaled_final/0909_fw.mp4	0.0	360.17731499671936	
60	328.19832587242126	fix_post	2		12	58.0	2.5	/experiments/AOT/AOT_stimuli/rescaled_final/0909_fw.mp4	0.0	360.2977979183197	0.09998917579650879
61	328.2983150482178	fix_pre	0		120	59.0	2.5	/experiments/AOT/AOT_stimuli/rescaled_final/0959_rv.mp4	0.0	360.3977870941162	1.0000100135803223
61	329.2983250617981	movie	1		245	59.0	2.5	/experiments/AOT/AOT_stimuli/rescaled_final/0959_rv.mp4	0.0	361.39779710769653	2.499959945678711
61	329.6817100048065	pulse	1	t		59.0	2.5	/experiments/AOT/AOT_stimuli/rescaled_final/0959_rv.mp4	0.0	361.78118205070496	
61	331.28176188468933	pulse	1	t		59.0	2.5	/experiments/AOT/AOT_stimuli/rescaled_final/0959_rv.mp4	0.0	363.38123393058777	
61	331.7982850074768	fix_post	2		12	59.0	2.5	/experiments/AOT/AOT_stimuli/rescaled_final/0959_rv.mp4	0.0	363.89775705337524	0.10004806518554688
62	331.89833307266235	fix_pre	0		119	60.0	2.5	/experiments/AOT/AOT_stimuli/rescaled_final/1215_fw.mp4	0.0	363.9978051185608	0.9916098117828369
62	332.88175797462463	pulse	0	t		60.0	2.5	/experiments/AOT/AOT_stimuli/rescaled_final/1215_fw.mp4	0.0	364.98123002052307	
62	332.8899428844452	movie	1		246	60.0	2.5	/experiments/AOT/AOT_stimuli/rescaled_final/1215_fw.mp4	0.0	364.9894149303436	2.508465051651001
62	334.4815900325775	pulse	1	t		60.0	2.5	/experiments/AOT/AOT_stimuli/rescaled_final/1215_fw.mp4	0.0	366.58106207847595	
62	335.3984079360962	fix_post	2		12	60.0	2.5	/experiments/AOT/AOT_stimuli/rescaled_final/1215_fw.mp4	0.0	367.49787998199463	0.0998079776763916
63	335.4982159137726	fix_pre	0		120	61.0	2.5	/experiments/AOT/AOT_stimuli/rescaled_final/0413_rv.mp4	0.0	367.597687959671	1.0001051425933838
63	336.081729888916	pulse	0	t		61.0	2.5	/experiments/AOT/AOT_stimuli/rescaled_final/0413_rv.mp4	0.0	368.18120193481445	
63	336.49832105636597	movie	1		246	61.0	2.5	/experiments/AOT/AOT_stimuli/rescaled_final/0413_rv.mp4	0.0	368.5977931022644	2.499992847442627
63	337.681832075119	pulse	1	t		61.0	2.5	/experiments/AOT/AOT_stimuli/rescaled_final/0413_rv.mp4	0.0	369.78130412101746	
63	338.9983139038086	fix_post	2		12	61.0	2.5	/experiments/AOT/AOT_stimuli/rescaled_final/0413_rv.mp4	0.0	371.09778594970703	0.09991097450256348
64	339.09822487831116	fix_pre	0		120	62.0	2.5	blank	1.0	371.1976969242096	1.0000600814819336
64	339.2818388938904	pulse	0	t		62.0	2.5	blank	1.0	371.3813109397888	
64	340.0982849597931	movie	1		300	62.0	2.5	blank	1.0	372.1977570056915	2.5000340938568115
64	340.8817889690399	pulse	1	t		62.0	2.5	blank	1.0	372.98126101493835	
64	342.48167991638184	pulse	1	t		62.0	2.5	blank	1.0	374.5811519622803	
64	342.5983190536499	fix_post	2		12	62.0	2.5	blank	1.0	374.69779109954834	0.0999748706817627
65	342.69829392433167	fix_pre	0		120	63.0	2.5	/experiments/AOT/AOT_stimuli/rescaled_final/0939_fw.mp4	0.0	374.7977659702301	0.9999899864196777
65	343.69828391075134	movie	1		244	63.0	2.5	/experiments/AOT/AOT_stimuli/rescaled_final/0939_fw.mp4	0.0	375.7977559566498	2.4999001026153564
65	344.0817959308624	pulse	1	t		63.0	2.5	/experiments/AOT/AOT_stimuli/rescaled_final/0939_fw.mp4	0.0	376.18126797676086	
65	345.6816780567169	pulse	1	t		63.0	2.5	/experiments/AOT/AOT_stimuli/rescaled_final/0939_fw.mp4	0.0	377.78115010261536	
65	346.1981840133667	fix_post	2		12	63.0	2.5	/experiments/AOT/AOT_stimuli/rescaled_final/0939_fw.mp4	0.0	378.29765605926514	0.1000819206237793
66	346.2982659339905	fix_pre	0		119	64.0	2.5	/experiments/AOT/AOT_stimuli/rescaled_final/1661_fw.mp4	0.0	378.3977379798889	0.9915471076965332
66	347.28173899650574	pulse	0	t		64.0	2.5	/experiments/AOT/AOT_stimuli/rescaled_final/1661_fw.mp4	0.0	379.3812110424042	
66	347.289813041687	movie	1		247	64.0	2.5	/experiments/AOT/AOT_stimuli/rescaled_final/1661_fw.mp4	0.0	379.38928508758545	2.5084068775177
66	348.88306188583374	pulse	1	t		64.0	2.5	/experiments/AOT/AOT_stimuli/rescaled_final/1661_fw.mp4	0.0	380.9825339317322	
66	349.7982199192047	fix_post	2		12	64.0	2.5	/experiments/AOT/AOT_stimuli/rescaled_final/1661_fw.mp4	0.0	381.89769196510315	0.09998011589050293
67	349.8982000350952	fix_pre	0		120	65.0	2.5	/experiments/AOT/AOT_stimuli/rescaled_final/0340_rv.mp4	0.0	381.99767208099365	1.0000958442687988
67	350.48168897628784	pulse	0	t		65.0	2.5	/experiments/AOT/AOT_stimuli/rescaled_final/0340_rv.mp4	0.0	382.5811610221863	
67	350.898295879364	movie	1		245	65.0	2.5	/experiments/AOT/AOT_stimuli/rescaled_final/0340_rv.mp4	0.0	382.99776792526245	2.4999940395355225
67	352.0817189216614	pulse	1	t		65.0	2.5	/experiments/AOT/AOT_stimuli/rescaled_final/0340_rv.mp4	0.0	384.1811909675598	
67	353.39828991889954	fix_post	2		12	65.0	2.5	/experiments/AOT/AOT_stimuli/rescaled_final/0340_rv.mp4	0.0	385.497761964798	0.09990406036376953
68	353.4981939792633	fix_pre	0		120	66.0	2.5	/experiments/AOT/AOT_stimuli/rescaled_final/2078_rv.mp4	0.0	385.59766602516174	1.0000829696655273
68	353.68171405792236	pulse	0	t		66.0	2.5	/experiments/AOT/AOT_stimuli/rescaled_final/2078_rv.mp4	0.0	385.7811861038208	
68	354.49827694892883	movie	1		243	66.0	2.5	/experiments/AOT/AOT_stimuli/rescaled_final/2078_rv.mp4	0.0	386.59774899482727	2.4999771118164062
68	355.28171706199646	pulse	1	t		66.0	2.5	/experiments/AOT/AOT_stimuli/rescaled_final/2078_rv.mp4	0.0	387.3811891078949	
68	356.8801259994507	pulse	1	t		66.0	2.5	/experiments/AOT/AOT_stimuli/rescaled_final/2078_rv.mp4	0.0	388.9795980453491	
68	356.99825406074524	fix_post	2		12	66.0	2.5	/experiments/AOT/AOT_stimuli/rescaled_final/2078_rv.mp4	0.0	389.0977261066437	0.09992003440856934
69	357.0981740951538	fix_pre	0		120	67.0	2.5	/experiments/AOT/AOT_stimuli/rescaled_final/1702_rv.mp4	0.0	389.19764614105225	1.0000479221343994
69	358.0982220172882	movie	1		242	67.0	2.5	/experiments/AOT/AOT_stimuli/rescaled_final/1702_rv.mp4	0.0	390.19769406318665	2.499976873397827
69	358.4817988872528	pulse	1	t		67.0	2.5	/experiments/AOT/AOT_stimuli/rescaled_final/1702_rv.mp4	0.0	390.58127093315125	
69	360.0816559791565	pulse	1	t		67.0	2.5	/experiments/AOT/AOT_stimuli/rescaled_final/1702_rv.mp4	0.0	392.18112802505493	
69	360.59819889068604	fix_post	2		12	67.0	2.5	/experiments/AOT/AOT_stimuli/rescaled_final/1702_rv.mp4	0.0	392.6976709365845	0.09996414184570312
70	360.69816303253174	fix_pre	0		119	68.0	2.5	/experiments/AOT/AOT_stimuli/rescaled_final/1955_fw.mp4	0.0	392.7976350784302	0.9915978908538818
70	361.6816449165344	pulse	0	t		68.0	2.5	/experiments/AOT/AOT_stimuli/rescaled_final/1955_fw.mp4	0.0	393.78111696243286	
70	361.6897609233856	movie	1		245	68.0	2.5	/experiments/AOT/AOT_stimuli/rescaled_final/1955_fw.mp4	0.0	393.78923296928406	2.508345127105713
70	363.2825789451599	pulse	1	t		68.0	2.5	/experiments/AOT/AOT_stimuli/rescaled_final/1955_fw.mp4	0.0	395.38205099105835	
70	364.19810605049133	fix_post	2		12	68.0	2.5	/experiments/AOT/AOT_stimuli/rescaled_final/1955_fw.mp4	0.0	396.29757809638977	0.1000359058380127
71	364.29814195632935	fix_pre	0		120	69.0	2.5	blank	1.0	396.3976140022278	0.999967098236084
71	364.8816828727722	pulse	0	t		69.0	2.5	blank	1.0	396.98115491867065	
71	365.29810905456543	movie	1		300	69.0	2.5	blank	1.0	397.39758110046387	2.4998698234558105
71	366.48166608810425	pulse	1	t		69.0	2.5	blank	1.0	398.5811381340027	
71	367.79797887802124	fix_post	2		12	69.0	2.5	blank	1.0	399.8974509239197	0.10001301765441895
72	367.89799189567566	fix_pre	0		120	70.0	2.5	/experiments/AOT/AOT_stimuli/rescaled_final/0241_fw.mp4	0.0	399.9974639415741	1.000110149383545
72	368.0815029144287	pulse	0	t		70.0	2.5	/experiments/AOT/AOT_stimuli/rescaled_final/0241_fw.mp4	0.0	400.18097496032715	
72	368.8981020450592	movie	1		245	70.0	2.5	/experiments/AOT/AOT_stimuli/rescaled_final/0241_fw.mp4	0.0	400.99757409095764	2.500018835067749
72	369.68167901039124	pulse	1	t		70.0	2.5	/experiments/AOT/AOT_stimuli/rescaled_final/0241_fw.mp4	0.0	401.7811510562897	
72	371.2801969051361	pulse	1	t		70.0	2.5	/experiments/AOT/AOT_stimuli/rescaled_final/0241_fw.mp4	0.0	403.37966895103455	
72	371.39812088012695	fix_post	2		12	70.0	2.5	/experiments/AOT/AOT_stimuli/rescaled_final/0241_fw.mp4	0.0	403.4975929260254	0.10000801086425781
73	371.4981288909912	fix_pre	0		120	71.0	2.5	/experiments/AOT/AOT_stimuli/rescaled_final/1866_rv.mp4	0.0	403.59760093688965	1.0000300407409668
73	372.4981589317322	movie	1		246	71.0	2.5	/experiments/AOT/AOT_stimuli/rescaled_final/1866_rv.mp4	0.0	404.5976309776306	2.499948024749756
73	372.882159948349	pulse	1	t		71.0	2.5	/experiments/AOT/AOT_stimuli/rescaled_final/1866_rv.mp4	0.0	404.98163199424744	
73	374.48151898384094	pulse	1	t		71.0	2.5	/experiments/AOT/AOT_stimuli/rescaled_final/1866_rv.mp4	0.0	406.5809910297394	
73	374.99810695648193	fix_post	2		12	71.0	2.5	/experiments/AOT/AOT_stimuli/rescaled_final/1866_rv.mp4	0.0	407.09757900238037	0.10000896453857422
74	375.0981159210205	fix_pre	0		119	72.0	2.5	/experiments/AOT/AOT_stimuli/rescaled_final/1899_rv.mp4	0.0	407.19758796691895	0.9916141033172607
74	376.0815100669861	pulse	0	t		72.0	2.5	/experiments/AOT/AOT_stimuli/rescaled_final/1899_rv.mp4	0.0	408.1809821128845	
74	376.08973002433777	movie	1		246	72.0	2.5	/experiments/AOT/AOT_stimuli/rescaled_final/1899_rv.mp4	0.0	408.1892020702362	2.5079240798950195
74	377.6817259788513	pulse	1	t		72.0	2.5	/experiments/AOT/AOT_stimuli/rescaled_final/1899_rv.mp4	0.0	409.78119802474976	
74	378.5976541042328	fix_post	2		12	72.0	2.5	/experiments/AOT/AOT_stimuli/rescaled_final/1899_rv.mp4	0.0	410.6971261501312	0.10045480728149414
75	378.6981089115143	fix_pre	0		120	73.0	2.5	/experiments/AOT/AOT_stimuli/rescaled_final/1689_fw.mp4	0.0	410.7975809574127	0.9999291896820068
75	379.281653881073	pulse	0	t		73.0	2.5	/experiments/AOT/AOT_stimuli/rescaled_final/1689_fw.mp4	0.0	411.38112592697144	
75	379.6980381011963	movie	1		247	73.0	2.5	/experiments/AOT/AOT_stimuli/rescaled_final/1689_fw.mp4	0.0	411.7975101470947	2.499983787536621
75	380.8816349506378	pulse	1	t		73.0	2.5	/experiments/AOT/AOT_stimuli/rescaled_final/1689_fw.mp4	0.0	412.98110699653625	
75	382.1980218887329	fix_post	2		12	73.0	2.5	/experiments/AOT/AOT_stimuli/rescaled_final/1689_fw.mp4	0.0	414.29749393463135	0.10004210472106934
76	382.298063993454	fix_pre	0		120	74.0	2.5	/experiments/AOT/AOT_stimuli/rescaled_final/0812_fw.mp4	0.0	414.3975360393524	0.999953031539917
76	382.4815239906311	pulse	0	t		74.0	2.5	/experiments/AOT/AOT_stimuli/rescaled_final/0812_fw.mp4	0.0	414.58099603652954	
76	383.2980170249939	movie	1		243	74.0	2.5	/experiments/AOT/AOT_stimuli/rescaled_final/0812_fw.mp4	0.0	415.39748907089233	2.500127077102661
76	384.08149003982544	pulse	1	t		74.0	2.5	/experiments/AOT/AOT_stimuli/rescaled_final/0812_fw.mp4	0.0	416.1809620857239	
76	385.67996406555176	pulse	1	t		74.0	2.5	/experiments/AOT/AOT_stimuli/rescaled_final/0812_fw.mp4	0.0	417.7794361114502	
76	385.79814410209656	fix_post	2		12	74.0	2.5	/experiments/AOT/AOT_stimuli/rescaled_final/0812_fw.mp4	0.0	417.897616147995	0.09993100166320801
77	385.89807510375977	fix_pre	0		120	75.0	2.5	/experiments/AOT/AOT_stimuli/rescaled_final/1983_fw.mp4	0.0	417.9975471496582	1.0000479221343994
77	386.89812302589417	movie	1		247	75.0	2.5	/experiments/AOT/AOT_stimuli/rescaled_final/1983_fw.mp4	0.0	418.9975950717926	2.499876022338867
77	387.28086709976196	pulse	1	t		75.0	2.5	/experiments/AOT/AOT_stimuli/rescaled_final/1983_fw.mp4	0.0	419.3803391456604	
77	388.88152408599854	pulse	1	t		75.0	2.5	/experiments/AOT/AOT_stimuli/rescaled_final/1983_fw.mp4	0.0	420.980996131897	
77	389.39799904823303	fix_post	2		12	75.0	2.5	/experiments/AOT/AOT_stimuli/rescaled_final/1983_fw.mp4	0.0	421.49747109413147	0.10003185272216797
78	389.4980309009552	fix_pre	0		119	76.0	2.5	/experiments/AOT/AOT_stimuli/rescaled_final/2027_fw.mp4	0.0	421.59750294685364	0.991657018661499
78	390.48151993751526	pulse	0	t		76.0	2.5	/experiments/AOT/AOT_stimuli/rescaled_final/2027_fw.mp4	0.0	422.5809919834137	
78	390.4896879196167	movie	1		245	76.0	2.5	/experiments/AOT/AOT_stimuli/rescaled_final/2027_fw.mp4	0.0	422.58915996551514	2.508416175842285
78	392.0811309814453	pulse	1	t		76.0	2.5	/experiments/AOT/AOT_stimuli/rescaled_final/2027_fw.mp4	0.0	424.18060302734375	
78	392.998104095459	fix_post	2		12	76.0	2.5	/experiments/AOT/AOT_stimuli/rescaled_final/2027_fw.mp4	0.0	425.0975761413574	0.0999608039855957
79	393.0980648994446	fix_pre	0		120	77.0	2.5	blank	1.0	425.197536945343	1.0000121593475342
79	393.6815469264984	pulse	0	t		77.0	2.5	blank	1.0	425.78101897239685	
79	394.0980770587921	movie	1		300	77.0	2.5	blank	1.0	426.19754910469055	2.4999709129333496
79	395.2814280986786	pulse	1	t		77.0	2.5	blank	1.0	427.380900144577	
79	396.59804797172546	fix_post	2		12	77.0	2.5	blank	1.0	428.6975200176239	0.09995293617248535
80	396.69800090789795	fix_pre	0		120	78.0	2.5	/experiments/AOT/AOT_stimuli/rescaled_final/0991_rv.mp4	0.0	428.7974729537964	0.999967098236084
80	396.88148307800293	pulse	0	t		78.0	2.5	/experiments/AOT/AOT_stimuli/rescaled_final/0991_rv.mp4	0.0	428.98095512390137	
80	397.69796800613403	movie	1		246	78.0	2.5	/experiments/AOT/AOT_stimuli/rescaled_final/0991_rv.mp4	0.0	429.79744005203247	2.500020980834961
80	398.48150300979614	pulse	1	t		78.0	2.5	/experiments/AOT/AOT_stimuli/rescaled_final/0991_rv.mp4	0.0	430.5809750556946	
80	400.0800199508667	pulse	1	t		78.0	2.5	/experiments/AOT/AOT_stimuli/rescaled_final/0991_rv.mp4	0.0	432.17949199676514	
80	400.197988986969	fix_post	2		12	78.0	2.5	/experiments/AOT/AOT_stimuli/rescaled_final/0991_rv.mp4	0.0	432.29746103286743	0.10002589225769043
81	400.2980148792267	fix_pre	0		120	79.0	2.5	/experiments/AOT/AOT_stimuli/rescaled_final/0218_rv.mp4	0.0	432.3974869251251	0.999981164932251
81	401.29799604415894	movie	1		247	79.0	2.5	/experiments/AOT/AOT_stimuli/rescaled_final/0218_rv.mp4	0.0	433.3974680900574	2.500011920928955
81	401.68200302124023	pulse	1	t		79.0	2.5	/experiments/AOT/AOT_stimuli/rescaled_final/0218_rv.mp4	0.0	433.7814750671387	
81	403.2814710140228	pulse	1	t		79.0	2.5	/experiments/AOT/AOT_stimuli/rescaled_final/0218_rv.mp4	0.0	435.38094305992126	
81	403.7980079650879	fix_post	2		12	79.0	2.5	/experiments/AOT/AOT_stimuli/rescaled_final/0218_rv.mp4	0.0	435.8974800109863	0.09999394416809082
82	403.898001909256	fix_pre	0		119	80.0	2.5	/experiments/AOT/AOT_stimuli/rescaled_final/2112_rv.mp4	0.0	435.9974739551544	0.9916071891784668
82	404.8815040588379	pulse	0	t		80.0	2.5	/experiments/AOT/AOT_stimuli/rescaled_final/2112_rv.mp4	0.0	436.9809761047363	
82	404.88960909843445	movie	1		247	80.0	2.5	/experiments/AOT/AOT_stimuli/rescaled_final/2112_rv.mp4	0.0	436.9890811443329	2.5083189010620117
82	406.4811279773712	pulse	1	t		80.0	2.5	/experiments/AOT/AOT_stimuli/rescaled_final/2112_rv.mp4	0.0	438.58060002326965	
82	407.39792799949646	fix_post	2		12	80.0	2.5	/experiments/AOT/AOT_stimuli/rescaled_final/2112_rv.mp4	0.0	439.4974000453949	0.10008406639099121
83	407.49801206588745	fix_pre	0		120	81.0	2.5	/experiments/AOT/AOT_stimuli/rescaled_final/2075_rv.mp4	0.0	439.5974841117859	0.9999768733978271
83	408.08147406578064	pulse	0	t		81.0	2.5	/experiments/AOT/AOT_stimuli/rescaled_final/2075_rv.mp4	0.0	440.1809461116791	
83	408.4979889392853	movie	1		245	81.0	2.5	/experiments/AOT/AOT_stimuli/rescaled_final/2075_rv.mp4	0.0	440.5974609851837	2.4995479583740234
83	409.68163800239563	pulse	1	t		81.0	2.5	/experiments/AOT/AOT_stimuli/rescaled_final/2075_rv.mp4	0.0	441.78111004829407	
83	410.9975368976593	fix_post	2		12	81.0	2.5	/experiments/AOT/AOT_stimuli/rescaled_final/2075_rv.mp4	0.0	443.09700894355774	0.10042810440063477
84	411.09796500205994	fix_pre	0		120	82.0	2.5	/experiments/AOT/AOT_stimuli/rescaled_final/2172_rv.mp4	0.0	443.1974370479584	0.9999608993530273
84	411.28141689300537	pulse	0	t		82.0	2.5	/experiments/AOT/AOT_stimuli/rescaled_final/2172_rv.mp4	0.0	443.3808889389038	
84	412.09792590141296	movie	1		244	82.0	2.5	/experiments/AOT/AOT_stimuli/rescaled_final/2172_rv.mp4	0.0	444.1973979473114	2.499925136566162
84	412.88155007362366	pulse	1	t		82.0	2.5	/experiments/AOT/AOT_stimuli/rescaled_final/2172_rv.mp4	0.0	444.9810221195221	
84	414.4774880409241	pulse	1	t		82.0	2.5	/experiments/AOT/AOT_stimuli/rescaled_final/2172_rv.mp4	0.0	446.5769600868225	
84	414.5978510379791	fix_post	2		12	82.0	2.5	/experiments/AOT/AOT_stimuli/rescaled_final/2172_rv.mp4	0.0	446.69732308387756	0.09999489784240723
85	414.69784593582153	fix_pre	0		120	83.0	2.5	blank	1.0	446.79731798171997	0.9995739459991455
85	415.6974198818207	movie	1		300	83.0	2.5	blank	1.0	447.7968919277191	2.500479221343994
85	416.0813629627228	pulse	1	t		83.0	2.5	blank	1.0	448.1808350086212	
85	417.68138003349304	pulse	1	t		83.0	2.5	blank	1.0	449.7808520793915	
85	418.1978991031647	fix_post	2		12	83.0	2.5	blank	1.0	450.2973711490631	0.09992480278015137
87	418.2978239059448	stim	0		1716					450.39729595184326	14.29990005493164
87	419.2814440727234	pulse	0	t						451.3809161186218	
87	420.8813920021057	pulse	0	t						452.98086404800415	
87	422.48097491264343	pulse	0	t						454.58044695854187	
87	424.08125710487366	pulse	0	t						456.1807291507721	
87	425.68134689331055	pulse	0	t						457.780818939209	
87	427.2813010215759	pulse	0	t						459.38077306747437	
87	428.88129901885986	pulse	0	t						460.9807710647583	
87	430.4812319278717	pulse	0	t						462.58070397377014	
87	432.0812509059906	pulse	0	t						464.18072295188904	
