trial_nr	onset	event_type	phase	response	nr_frames	movie_index	movie_duration	movie_file	blank	onset_abs	duration
0	0.16667437553405762	stim	0		84					21.80691409111023	0.6999006271362305
0	0.851353645324707	response	0	space						22.49159336090088	
1	0.8665750026702881	stim	0		4680					22.50681471824646	39.015836238861084
1	39.872645139694214	pulse	0	t						61.512884855270386	
1	39.88241124153137	stim	1		1715					61.522650957107544	14.30050277709961
1	41.464571714401245	pulse	1	t						63.10481142997742	
1	43.0647668838501	pulse	1	t						64.70500659942627	
1	44.66503167152405	pulse	1	t						66.30527138710022	
1	46.265289068222046	pulse	1	t						67.90552878379822	
1	47.86573100090027	pulse	1	t						69.50597071647644	
1	49.46581482887268	pulse	1	t						71.10605454444885	
1	51.06609129905701	pulse	1	t						72.70633101463318	
1	52.666175842285156	pulse	1	t						74.30641555786133	
2	54.18291401863098	fix_pre	0		11	0.0	2.5	/experiments/Knapen_AOT/AOT_stimuli/rescaled_final/1561_fw.mp4	0.0	75.82315373420715	0.10837984085083008
2	54.2664954662323	pulse	0	t		0.0	2.5	/experiments/Knapen_AOT/AOT_stimuli/rescaled_final/1561_fw.mp4	0.0	75.90673518180847	
2	54.29129385948181	movie	1		281	0.0	2.5	/experiments/Knapen_AOT/AOT_stimuli/rescaled_final/1561_fw.mp4	0.0	75.93153357505798	2.492006301879883
2	55.86527395248413	pulse	1	t		0.0	2.5	/experiments/Knapen_AOT/AOT_stimuli/rescaled_final/1561_fw.mp4	0.0	77.5055136680603	
2	56.783300161361694	fix_post	2		12	0.0	2.5	/experiments/Knapen_AOT/AOT_stimuli/rescaled_final/1561_fw.mp4	0.0	78.42353987693787	0.10014033317565918
3	56.88344049453735	fix_pre	0		120	1.0	2.5	/experiments/Knapen_AOT/AOT_stimuli/rescaled_final/2003_rv.mp4	0.0	78.52368021011353	1.008415937423706
3	57.466947078704834	pulse	0	t		1.0	2.5	/experiments/Knapen_AOT/AOT_stimuli/rescaled_final/2003_rv.mp4	0.0	79.107186794281	
3	57.89185643196106	movie	1		289	1.0	2.5	/experiments/Knapen_AOT/AOT_stimuli/rescaled_final/2003_rv.mp4	0.0	79.53209614753723	2.50032114982605
3	59.06542372703552	pulse	1	t		1.0	2.5	/experiments/Knapen_AOT/AOT_stimuli/rescaled_final/2003_rv.mp4	0.0	80.7056634426117	
3	60.39217758178711	fix_post	2		11	1.0	2.5	/experiments/Knapen_AOT/AOT_stimuli/rescaled_final/2003_rv.mp4	0.0	82.03241729736328	0.09167051315307617
4	60.483848094940186	fix_pre	0		120	2.0	2.5	/experiments/Knapen_AOT/AOT_stimuli/rescaled_final/1111_fw.mp4	0.0	82.12408781051636	1.008533000946045
4	60.667397022247314	pulse	0	t		2.0	2.5	/experiments/Knapen_AOT/AOT_stimuli/rescaled_final/1111_fw.mp4	0.0	82.30763673782349	
4	61.49238109588623	movie	1		287	2.0	2.5	/experiments/Knapen_AOT/AOT_stimuli/rescaled_final/1111_fw.mp4	0.0	83.1326208114624	2.491988182067871
4	62.26542854309082	pulse	1	t		2.0	2.5	/experiments/Knapen_AOT/AOT_stimuli/rescaled_final/1111_fw.mp4	0.0	83.90566825866699	
4	63.868693113327026	pulse	1	t		2.0	2.5	/experiments/Knapen_AOT/AOT_stimuli/rescaled_final/1111_fw.mp4	0.0	85.5089328289032	
4	63.9843692779541	fix_post	2		12	2.0	2.5	/experiments/Knapen_AOT/AOT_stimuli/rescaled_final/1111_fw.mp4	0.0	85.62460899353027	0.10003280639648438
5	64.08440208435059	fix_pre	0		120	3.0	2.5	/experiments/Knapen_AOT/AOT_stimuli/rescaled_final/1061_rv.mp4	0.0	85.72464179992676	1.0084900856018066
5	65.09289216995239	movie	1		275	3.0	2.5	/experiments/Knapen_AOT/AOT_stimuli/rescaled_final/1061_rv.mp4	0.0	86.73313188552856	2.492027997970581
5	65.46617650985718	pulse	1	t		3.0	2.5	/experiments/Knapen_AOT/AOT_stimuli/rescaled_final/1061_rv.mp4	0.0	87.10641622543335	
5	67.06630539894104	pulse	1	t		3.0	2.5	/experiments/Knapen_AOT/AOT_stimuli/rescaled_final/1061_rv.mp4	0.0	88.70654511451721	
5	67.58492016792297	fix_post	2		12	3.0	2.5	/experiments/Knapen_AOT/AOT_stimuli/rescaled_final/1061_rv.mp4	0.0	89.22515988349915	0.10003328323364258
6	67.68495345115662	fix_pre	0		119	4.0	2.5	/experiments/Knapen_AOT/AOT_stimuli/rescaled_final/0650_fw.mp4	0.0	89.32519316673279	1.0003135204315186
6	68.66875219345093	pulse	0	t		4.0	2.5	/experiments/Knapen_AOT/AOT_stimuli/rescaled_final/0650_fw.mp4	0.0	90.3089919090271	
6	68.68526697158813	movie	1		282	4.0	2.5	/experiments/Knapen_AOT/AOT_stimuli/rescaled_final/0650_fw.mp4	0.0	90.3255066871643	2.50856614112854
6	70.26748156547546	pulse	1	t		4.0	2.5	/experiments/Knapen_AOT/AOT_stimuli/rescaled_final/0650_fw.mp4	0.0	91.90772128105164	
6	71.19383311271667	fix_post	2		11	4.0	2.5	/experiments/Knapen_AOT/AOT_stimuli/rescaled_final/0650_fw.mp4	0.0	92.83407282829285	0.09164905548095703
7	71.28548216819763	fix_pre	0		120	5.0	2.5	/experiments/Knapen_AOT/AOT_stimuli/rescaled_final/1022_rv.mp4	0.0	92.9257218837738	1.008514404296875
7	71.8691349029541	pulse	0	t		5.0	2.5	/experiments/Knapen_AOT/AOT_stimuli/rescaled_final/1022_rv.mp4	0.0	93.50937461853027	
7	72.2939965724945	movie	1		288	5.0	2.5	/experiments/Knapen_AOT/AOT_stimuli/rescaled_final/1022_rv.mp4	0.0	93.93423628807068	2.492050886154175
7	73.46756958961487	pulse	1	t		5.0	2.5	/experiments/Knapen_AOT/AOT_stimuli/rescaled_final/1022_rv.mp4	0.0	95.10780930519104	
7	74.78604745864868	fix_post	2		12	5.0	2.5	/experiments/Knapen_AOT/AOT_stimuli/rescaled_final/1022_rv.mp4	0.0	96.42628717422485	0.10001921653747559
8	74.88606667518616	fix_pre	0		120	6.0	2.5	/experiments/Knapen_AOT/AOT_stimuli/rescaled_final/1533_fw.mp4	0.0	96.52630639076233	1.0084500312805176
8	75.06284713745117	pulse	0	t		6.0	2.5	/experiments/Knapen_AOT/AOT_stimuli/rescaled_final/1533_fw.mp4	0.0	96.70308685302734	
8	75.89451670646667	movie	1		283	6.0	2.5	/experiments/Knapen_AOT/AOT_stimuli/rescaled_final/1533_fw.mp4	0.0	97.53475642204285	2.492032289505005
8	76.66781163215637	pulse	1	t		6.0	2.5	/experiments/Knapen_AOT/AOT_stimuli/rescaled_final/1533_fw.mp4	0.0	98.30805134773254	
8	78.26815247535706	pulse	1	t		6.0	2.5	/experiments/Knapen_AOT/AOT_stimuli/rescaled_final/1533_fw.mp4	0.0	99.90839219093323	
8	78.38654899597168	fix_post	2		12	6.0	2.5	/experiments/Knapen_AOT/AOT_stimuli/rescaled_final/1533_fw.mp4	0.0	100.02678871154785	0.10009217262268066
9	78.48664116859436	fix_pre	0		120	7.0	2.5	blank	1.0	100.12688088417053	1.000180959701538
9	79.4868221282959	movie	1		300	7.0	2.5	blank	1.0	101.12706184387207	2.500265598297119
9	79.86263942718506	pulse	1	t		7.0	2.5	blank	1.0	101.50287914276123	
9	81.46237325668335	pulse	1	t		7.0	2.5	blank	1.0	103.10261297225952	
9	81.98708772659302	fix_post	2		12	7.0	2.5	blank	1.0	103.62732744216919	0.10000777244567871
10	82.0870954990387	fix_pre	0		118	8.0	2.5	/experiments/Knapen_AOT/AOT_stimuli/rescaled_final/0727_fw.mp4	0.0	103.72733521461487	0.9918148517608643
10	83.06250095367432	pulse	0	t		8.0	2.5	/experiments/Knapen_AOT/AOT_stimuli/rescaled_final/0727_fw.mp4	0.0	104.70274066925049	
10	83.07891035079956	movie	1		290	8.0	2.5	/experiments/Knapen_AOT/AOT_stimuli/rescaled_final/0727_fw.mp4	0.0	104.71915006637573	2.5004167556762695
10	84.66304421424866	pulse	1	t		8.0	2.5	/experiments/Knapen_AOT/AOT_stimuli/rescaled_final/0727_fw.mp4	0.0	106.30328392982483	
10	85.57932710647583	fix_post	2		12	8.0	2.5	/experiments/Knapen_AOT/AOT_stimuli/rescaled_final/0727_fw.mp4	0.0	107.219566822052	0.09998846054077148
11	85.6793155670166	fix_pre	0		120	9.0	2.5	/experiments/Knapen_AOT/AOT_stimuli/rescaled_final/2003_fw.mp4	0.0	107.31955528259277	1.008596420288086
11	86.26299238204956	pulse	0	t		9.0	2.5	/experiments/Knapen_AOT/AOT_stimuli/rescaled_final/2003_fw.mp4	0.0	107.90323209762573	
11	86.68791198730469	movie	1		279	9.0	2.5	/experiments/Knapen_AOT/AOT_stimuli/rescaled_final/2003_fw.mp4	0.0	108.32815170288086	2.4919216632843018
11	87.8631637096405	pulse	1	t		9.0	2.5	/experiments/Knapen_AOT/AOT_stimuli/rescaled_final/2003_fw.mp4	0.0	109.50340342521667	
11	89.17983365058899	fix_post	2		12	9.0	2.5	/experiments/Knapen_AOT/AOT_stimuli/rescaled_final/2003_fw.mp4	0.0	110.82007336616516	0.10008573532104492
12	89.27991938591003	fix_pre	0		120	10.0	2.5	/experiments/Knapen_AOT/AOT_stimuli/rescaled_final/0528_rv.mp4	0.0	110.9201591014862	1.0084235668182373
12	89.46372747421265	pulse	0	t		10.0	2.5	/experiments/Knapen_AOT/AOT_stimuli/rescaled_final/0528_rv.mp4	0.0	111.10396718978882	
12	90.28834295272827	movie	1		277	10.0	2.5	/experiments/Knapen_AOT/AOT_stimuli/rescaled_final/0528_rv.mp4	0.0	111.92858266830444	2.4920268058776855
12	91.0630612373352	pulse	1	t		10.0	2.5	/experiments/Knapen_AOT/AOT_stimuli/rescaled_final/0528_rv.mp4	0.0	112.70330095291138	
12	92.6639494895935	pulse	1	t		10.0	2.5	/experiments/Knapen_AOT/AOT_stimuli/rescaled_final/0528_rv.mp4	0.0	114.30418920516968	
12	92.78036975860596	fix_post	2		12	10.0	2.5	/experiments/Knapen_AOT/AOT_stimuli/rescaled_final/0528_rv.mp4	0.0	114.42060947418213	0.10009193420410156
13	92.88046169281006	fix_pre	0		120	11.0	2.5	/experiments/Knapen_AOT/AOT_stimuli/rescaled_final/0510_rv.mp4	0.0	114.52070140838623	1.0084445476531982
13	93.88890624046326	movie	1		285	11.0	2.5	/experiments/Knapen_AOT/AOT_stimuli/rescaled_final/0510_rv.mp4	0.0	115.52914595603943	2.492021083831787
13	94.2640528678894	pulse	1	t		11.0	2.5	/experiments/Knapen_AOT/AOT_stimuli/rescaled_final/0510_rv.mp4	0.0	115.90429258346558	
13	95.86436367034912	pulse	1	t		11.0	2.5	/experiments/Knapen_AOT/AOT_stimuli/rescaled_final/0510_rv.mp4	0.0	117.5046033859253	
13	96.38092732429504	fix_post	2		12	11.0	2.5	/experiments/Knapen_AOT/AOT_stimuli/rescaled_final/0510_rv.mp4	0.0	118.02116703987122	0.10007262229919434
14	96.48099994659424	fix_pre	0		119	12.0	2.5	/experiments/Knapen_AOT/AOT_stimuli/rescaled_final/0408_fw.mp4	0.0	118.12123966217041	1.0001468658447266
14	97.4646589756012	pulse	0	t		12.0	2.5	/experiments/Knapen_AOT/AOT_stimuli/rescaled_final/0408_fw.mp4	0.0	119.10489869117737	
14	97.48114681243896	movie	1		279	12.0	2.5	/experiments/Knapen_AOT/AOT_stimuli/rescaled_final/0408_fw.mp4	0.0	119.12138652801514	2.500314950942993
14	99.06440877914429	pulse	1	t		12.0	2.5	/experiments/Knapen_AOT/AOT_stimuli/rescaled_final/0408_fw.mp4	0.0	120.70464849472046	
14	99.98146176338196	fix_post	2		12	12.0	2.5	/experiments/Knapen_AOT/AOT_stimuli/rescaled_final/0408_fw.mp4	0.0	121.62170147895813	0.1000056266784668
15	100.08146739006042	fix_pre	0		120	13.0	2.5	/experiments/Knapen_AOT/AOT_stimuli/rescaled_final/0502_fw.mp4	0.0	121.7217071056366	1.0085325241088867
15	100.66509008407593	pulse	0	t		13.0	2.5	/experiments/Knapen_AOT/AOT_stimuli/rescaled_final/0502_fw.mp4	0.0	122.3053297996521	
15	101.08999991416931	movie	1		284	13.0	2.5	/experiments/Knapen_AOT/AOT_stimuli/rescaled_final/0502_fw.mp4	0.0	122.73023962974548	2.49204158782959
15	102.26421427726746	pulse	1	t		13.0	2.5	/experiments/Knapen_AOT/AOT_stimuli/rescaled_final/0502_fw.mp4	0.0	123.90445399284363	
15	103.5820415019989	fix_post	2		12	13.0	2.5	/experiments/Knapen_AOT/AOT_stimuli/rescaled_final/0502_fw.mp4	0.0	125.22228121757507	0.10003471374511719
16	103.68207621574402	fix_pre	0		120	14.0	2.5	blank	1.0	125.32231593132019	1.000152349472046
16	103.86563563346863	pulse	0	t		14.0	2.5	blank	1.0	125.5058753490448	
16	104.68222856521606	movie	1		300	14.0	2.5	blank	1.0	126.32246828079224	2.5003013610839844
16	105.46581792831421	pulse	1	t		14.0	2.5	blank	1.0	127.10605764389038	
16	107.06615829467773	pulse	1	t		14.0	2.5	blank	1.0	128.7063980102539	
16	107.18252992630005	fix_post	2		12	14.0	2.5	blank	1.0	128.82276964187622	0.10003352165222168
17	107.28256344795227	fix_pre	0		120	15.0	2.5	/experiments/Knapen_AOT/AOT_stimuli/rescaled_final/0607_fw.mp4	0.0	128.92280316352844	1.008512258529663
17	108.29107570648193	movie	1		281	15.0	2.5	/experiments/Knapen_AOT/AOT_stimuli/rescaled_final/0607_fw.mp4	0.0	129.9313154220581	2.4920177459716797
17	108.6650013923645	pulse	1	t		15.0	2.5	/experiments/Knapen_AOT/AOT_stimuli/rescaled_final/0607_fw.mp4	0.0	130.30524110794067	
17	110.26454019546509	pulse	1	t		15.0	2.5	/experiments/Knapen_AOT/AOT_stimuli/rescaled_final/0607_fw.mp4	0.0	131.90477991104126	
17	110.78309345245361	fix_post	2		12	15.0	2.5	/experiments/Knapen_AOT/AOT_stimuli/rescaled_final/0607_fw.mp4	0.0	132.42333316802979	0.10001397132873535
18	110.88310742378235	fix_pre	0		119	16.0	2.5	/experiments/Knapen_AOT/AOT_stimuli/rescaled_final/0354_rv.mp4	0.0	132.52334713935852	1.0001416206359863
18	111.86678266525269	pulse	0	t		16.0	2.5	/experiments/Knapen_AOT/AOT_stimuli/rescaled_final/0354_rv.mp4	0.0	133.50702238082886	
18	111.88324904441833	movie	1		285	16.0	2.5	/experiments/Knapen_AOT/AOT_stimuli/rescaled_final/0354_rv.mp4	0.0	133.5234887599945	2.5003652572631836
18	113.46570372581482	pulse	1	t		16.0	2.5	/experiments/Knapen_AOT/AOT_stimuli/rescaled_final/0354_rv.mp4	0.0	135.105943441391	
18	114.38361430168152	fix_post	2		12	16.0	2.5	/experiments/Knapen_AOT/AOT_stimuli/rescaled_final/0354_rv.mp4	0.0	136.0238540172577	0.10004186630249023
19	114.48365616798401	fix_pre	0		120	17.0	2.5	/experiments/Knapen_AOT/AOT_stimuli/rescaled_final/0639_fw.mp4	0.0	136.12389588356018	1.0086512565612793
19	115.06727480888367	pulse	0	t		17.0	2.5	/experiments/Knapen_AOT/AOT_stimuli/rescaled_final/0639_fw.mp4	0.0	136.70751452445984	
19	115.49230742454529	movie	1		284	17.0	2.5	/experiments/Knapen_AOT/AOT_stimuli/rescaled_final/0639_fw.mp4	0.0	137.13254714012146	2.491934061050415
19	116.665860414505	pulse	1	t		17.0	2.5	/experiments/Knapen_AOT/AOT_stimuli/rescaled_final/0639_fw.mp4	0.0	138.30610013008118	
19	117.9842414855957	fix_post	2		12	17.0	2.5	/experiments/Knapen_AOT/AOT_stimuli/rescaled_final/0639_fw.mp4	0.0	139.62448120117188	0.099945068359375
20	118.08418655395508	fix_pre	0		120	18.0	2.5	/experiments/Knapen_AOT/AOT_stimuli/rescaled_final/1800_rv.mp4	0.0	139.72442626953125	1.008495807647705
20	118.26775074005127	pulse	0	t		18.0	2.5	/experiments/Knapen_AOT/AOT_stimuli/rescaled_final/1800_rv.mp4	0.0	139.90799045562744	
20	119.09268236160278	movie	1		285	18.0	2.5	/experiments/Knapen_AOT/AOT_stimuli/rescaled_final/1800_rv.mp4	0.0	140.73292207717896	2.4920194149017334
20	119.86597061157227	pulse	1	t		18.0	2.5	/experiments/Knapen_AOT/AOT_stimuli/rescaled_final/1800_rv.mp4	0.0	141.50621032714844	
20	121.4666838645935	pulse	1	t		18.0	2.5	/experiments/Knapen_AOT/AOT_stimuli/rescaled_final/1800_rv.mp4	0.0	143.10692358016968	
20	121.58470177650452	fix_post	2		12	18.0	2.5	/experiments/Knapen_AOT/AOT_stimuli/rescaled_final/1800_rv.mp4	0.0	143.2249414920807	0.10001301765441895
21	121.68471479415894	fix_pre	0		120	19.0	2.5	blank	1.0	143.3249545097351	1.0001842975616455
21	122.68489909172058	movie	1		300	19.0	2.5	blank	1.0	144.32513880729675	2.5003719329833984
21	123.06862139701843	pulse	1	t		19.0	2.5	blank	1.0	144.7088611125946	
21	124.6686782836914	pulse	1	t		19.0	2.5	blank	1.0	146.30891799926758	
21	125.18527102470398	fix_post	2		12	19.0	2.5	blank	1.0	146.82551074028015	0.09999251365661621
22	125.2852635383606	fix_pre	0		119	20.0	2.5	/experiments/Knapen_AOT/AOT_stimuli/rescaled_final/0754_rv.mp4	0.0	146.92550325393677	1.0001475811004639
22	126.2689688205719	pulse	0	t		20.0	2.5	/experiments/Knapen_AOT/AOT_stimuli/rescaled_final/0754_rv.mp4	0.0	147.90920853614807	
22	126.28541111946106	movie	1		284	20.0	2.5	/experiments/Knapen_AOT/AOT_stimuli/rescaled_final/0754_rv.mp4	0.0	147.92565083503723	2.5004208087921143
22	127.8675057888031	pulse	1	t		20.0	2.5	/experiments/Knapen_AOT/AOT_stimuli/rescaled_final/0754_rv.mp4	0.0	149.50774550437927	
22	128.78583192825317	fix_post	2		12	20.0	2.5	/experiments/Knapen_AOT/AOT_stimuli/rescaled_final/0754_rv.mp4	0.0	150.42607164382935	0.0999755859375
23	128.88580751419067	fix_pre	0		120	21.0	2.5	/experiments/Knapen_AOT/AOT_stimuli/rescaled_final/1121_fw.mp4	0.0	150.52604722976685	1.0084729194641113
23	129.4623260498047	pulse	0	t		21.0	2.5	/experiments/Knapen_AOT/AOT_stimuli/rescaled_final/1121_fw.mp4	0.0	151.10256576538086	
23	129.89428043365479	movie	1		283	21.0	2.5	/experiments/Knapen_AOT/AOT_stimuli/rescaled_final/1121_fw.mp4	0.0	151.53452014923096	2.492060422897339
23	131.06761145591736	pulse	1	t		21.0	2.5	/experiments/Knapen_AOT/AOT_stimuli/rescaled_final/1121_fw.mp4	0.0	152.70785117149353	
23	132.38634085655212	fix_post	2		12	21.0	2.5	/experiments/Knapen_AOT/AOT_stimuli/rescaled_final/1121_fw.mp4	0.0	154.0265805721283	0.10008692741394043
24	132.48642778396606	fix_pre	0		120	22.0	2.5	/experiments/Knapen_AOT/AOT_stimuli/rescaled_final/2136_rv.mp4	0.0	154.12666749954224	1.0084285736083984
24	132.66186356544495	pulse	0	t		22.0	2.5	/experiments/Knapen_AOT/AOT_stimuli/rescaled_final/2136_rv.mp4	0.0	154.30210328102112	
24	133.49485635757446	movie	1		282	22.0	2.5	/experiments/Knapen_AOT/AOT_stimuli/rescaled_final/2136_rv.mp4	0.0	155.13509607315063	2.4920287132263184
24	134.26190185546875	pulse	1	t		22.0	2.5	/experiments/Knapen_AOT/AOT_stimuli/rescaled_final/2136_rv.mp4	0.0	155.90214157104492	
24	135.86207818984985	pulse	1	t		22.0	2.5	/experiments/Knapen_AOT/AOT_stimuli/rescaled_final/2136_rv.mp4	0.0	157.50231790542603	
24	135.98688507080078	fix_post	2		12	22.0	2.5	/experiments/Knapen_AOT/AOT_stimuli/rescaled_final/2136_rv.mp4	0.0	157.62712478637695	0.10001158714294434
25	136.08689665794373	fix_pre	0		120	23.0	2.5	/experiments/Knapen_AOT/AOT_stimuli/rescaled_final/1768_fw.mp4	0.0	157.7271363735199	1.0084960460662842
25	137.09539270401	movie	1		284	23.0	2.5	/experiments/Knapen_AOT/AOT_stimuli/rescaled_final/1768_fw.mp4	0.0	158.73563241958618	2.4920191764831543
25	137.4624342918396	pulse	1	t		23.0	2.5	/experiments/Knapen_AOT/AOT_stimuli/rescaled_final/1768_fw.mp4	0.0	159.10267400741577	
25	139.06254982948303	pulse	1	t		23.0	2.5	/experiments/Knapen_AOT/AOT_stimuli/rescaled_final/1768_fw.mp4	0.0	160.7027895450592	
25	139.58741188049316	fix_post	2		12	23.0	2.5	/experiments/Knapen_AOT/AOT_stimuli/rescaled_final/1768_fw.mp4	0.0	161.22765159606934	0.10003256797790527
26	139.68744444847107	fix_pre	0		118	24.0	2.5	/experiments/Knapen_AOT/AOT_stimuli/rescaled_final/0478_fw.mp4	0.0	161.32768416404724	0.9917988777160645
26	140.66280245780945	pulse	0	t		24.0	2.5	/experiments/Knapen_AOT/AOT_stimuli/rescaled_final/0478_fw.mp4	0.0	162.30304217338562	
26	140.67924332618713	movie	1		288	24.0	2.5	/experiments/Knapen_AOT/AOT_stimuli/rescaled_final/0478_fw.mp4	0.0	162.3194830417633	2.5003833770751953
26	142.26170206069946	pulse	1	t		24.0	2.5	/experiments/Knapen_AOT/AOT_stimuli/rescaled_final/0478_fw.mp4	0.0	163.90194177627563	
26	143.17962670326233	fix_post	2		12	24.0	2.5	/experiments/Knapen_AOT/AOT_stimuli/rescaled_final/0478_fw.mp4	0.0	164.8198664188385	0.10001540184020996
27	143.27964210510254	fix_pre	0		120	25.0	2.5	/experiments/Knapen_AOT/AOT_stimuli/rescaled_final/0859_fw.mp4	0.0	164.9198818206787	1.0084521770477295
27	143.86325883865356	pulse	0	t		25.0	2.5	/experiments/Knapen_AOT/AOT_stimuli/rescaled_final/0859_fw.mp4	0.0	165.50349855422974	
27	144.28809428215027	movie	1		287	25.0	2.5	/experiments/Knapen_AOT/AOT_stimuli/rescaled_final/0859_fw.mp4	0.0	165.92833399772644	2.492114782333374
27	145.46350812911987	pulse	1	t		25.0	2.5	/experiments/Knapen_AOT/AOT_stimuli/rescaled_final/0859_fw.mp4	0.0	167.10374784469604	
27	146.78020906448364	fix_post	2		12	25.0	2.5	/experiments/Knapen_AOT/AOT_stimuli/rescaled_final/0859_fw.mp4	0.0	168.42044878005981	0.09997320175170898
28	146.88018226623535	fix_pre	0		120	26.0	2.5	/experiments/Knapen_AOT/AOT_stimuli/rescaled_final/0382_fw.mp4	0.0	168.52042198181152	1.0085415840148926
28	147.06372714042664	pulse	0	t		26.0	2.5	/experiments/Knapen_AOT/AOT_stimuli/rescaled_final/0382_fw.mp4	0.0	168.7039668560028	
28	147.88872385025024	movie	1		275	26.0	2.5	/experiments/Knapen_AOT/AOT_stimuli/rescaled_final/0382_fw.mp4	0.0	169.52896356582642	2.4920082092285156
28	148.66221284866333	pulse	1	t		26.0	2.5	/experiments/Knapen_AOT/AOT_stimuli/rescaled_final/0382_fw.mp4	0.0	170.3024525642395	
28	150.26242303848267	pulse	1	t		26.0	2.5	/experiments/Knapen_AOT/AOT_stimuli/rescaled_final/0382_fw.mp4	0.0	171.90266275405884	
28	150.38073205947876	fix_post	2		12	26.0	2.5	/experiments/Knapen_AOT/AOT_stimuli/rescaled_final/0382_fw.mp4	0.0	172.02097177505493	0.10000920295715332
29	150.4807412624359	fix_pre	0		120	27.0	2.5	/experiments/Knapen_AOT/AOT_stimuli/rescaled_final/1991_rv.mp4	0.0	172.12098097801208	1.008619785308838
29	151.48936104774475	movie	1		285	27.0	2.5	/experiments/Knapen_AOT/AOT_stimuli/rescaled_final/1991_rv.mp4	0.0	173.12960076332092	2.491881847381592
29	151.86314821243286	pulse	1	t		27.0	2.5	/experiments/Knapen_AOT/AOT_stimuli/rescaled_final/1991_rv.mp4	0.0	173.50338792800903	
29	153.46315217018127	pulse	1	t		27.0	2.5	/experiments/Knapen_AOT/AOT_stimuli/rescaled_final/1991_rv.mp4	0.0	175.10339188575745	
29	153.98124289512634	fix_post	2		12	27.0	2.5	/experiments/Knapen_AOT/AOT_stimuli/rescaled_final/1991_rv.mp4	0.0	175.62148261070251	0.10001826286315918
30	154.0812611579895	fix_pre	0		119	28.0	2.5	blank	1.0	175.72150087356567	0.9917778968811035
30	155.06502056121826	pulse	0	t		28.0	2.5	blank	1.0	176.70526027679443	
30	155.0730390548706	movie	1		301	28.0	2.5	blank	1.0	176.71327877044678	2.5087473392486572
30	156.66519474983215	pulse	1	t		28.0	2.5	blank	1.0	178.30543446540833	
30	157.58178639411926	fix_post	2		12	28.0	2.5	blank	1.0	179.22202610969543	0.0999917984008789
31	157.68177819252014	fix_pre	0		120	29.0	2.5	/experiments/Knapen_AOT/AOT_stimuli/rescaled_final/1938_fw.mp4	0.0	179.3220179080963	1.0086050033569336
31	158.2654025554657	pulse	0	t		29.0	2.5	/experiments/Knapen_AOT/AOT_stimuli/rescaled_final/1938_fw.mp4	0.0	179.90564227104187	
31	158.69038319587708	movie	1		286	29.0	2.5	/experiments/Knapen_AOT/AOT_stimuli/rescaled_final/1938_fw.mp4	0.0	180.33062291145325	2.492036819458008
31	159.86388897895813	pulse	1	t		29.0	2.5	/experiments/Knapen_AOT/AOT_stimuli/rescaled_final/1938_fw.mp4	0.0	181.5041286945343	
31	161.18242001533508	fix_post	2		12	29.0	2.5	/experiments/Knapen_AOT/AOT_stimuli/rescaled_final/1938_fw.mp4	0.0	182.82265973091125	0.09991335868835449
32	161.28233337402344	fix_pre	0		120	30.0	2.5	/experiments/Knapen_AOT/AOT_stimuli/rescaled_final/0186_rv.mp4	0.0	182.9225730895996	1.0085272789001465
32	161.46600079536438	pulse	0	t		30.0	2.5	/experiments/Knapen_AOT/AOT_stimuli/rescaled_final/0186_rv.mp4	0.0	183.10624051094055	
32	162.29086065292358	movie	1		276	30.0	2.5	/experiments/Knapen_AOT/AOT_stimuli/rescaled_final/0186_rv.mp4	0.0	183.93110036849976	2.4920077323913574
32	163.0642900466919	pulse	1	t		30.0	2.5	/experiments/Knapen_AOT/AOT_stimuli/rescaled_final/0186_rv.mp4	0.0	184.70452976226807	
32	164.66484570503235	pulse	1	t		30.0	2.5	/experiments/Knapen_AOT/AOT_stimuli/rescaled_final/0186_rv.mp4	0.0	186.30508542060852	
32	164.78286838531494	fix_post	2		12	30.0	2.5	/experiments/Knapen_AOT/AOT_stimuli/rescaled_final/0186_rv.mp4	0.0	186.4231081008911	0.10005378723144531
33	164.8829221725464	fix_pre	0		120	31.0	2.5	/experiments/Knapen_AOT/AOT_stimuli/rescaled_final/1997_fw.mp4	0.0	186.52316188812256	1.0084540843963623
33	165.89137625694275	movie	1		283	31.0	2.5	/experiments/Knapen_AOT/AOT_stimuli/rescaled_final/1997_fw.mp4	0.0	187.53161597251892	2.4920289516448975
33	166.26519536972046	pulse	1	t		31.0	2.5	/experiments/Knapen_AOT/AOT_stimuli/rescaled_final/1997_fw.mp4	0.0	187.90543508529663	
33	167.86702251434326	pulse	1	t		31.0	2.5	/experiments/Knapen_AOT/AOT_stimuli/rescaled_final/1997_fw.mp4	0.0	189.50726222991943	
33	168.38340520858765	fix_post	2		12	31.0	2.5	/experiments/Knapen_AOT/AOT_stimuli/rescaled_final/1997_fw.mp4	0.0	190.02364492416382	0.10002374649047852
34	168.48342895507812	fix_pre	0		119	32.0	2.5	/experiments/Knapen_AOT/AOT_stimuli/rescaled_final/1133_rv.mp4	0.0	190.1236686706543	1.000150203704834
34	169.46720790863037	pulse	0	t		32.0	2.5	/experiments/Knapen_AOT/AOT_stimuli/rescaled_final/1133_rv.mp4	0.0	191.10744762420654	
34	169.48357915878296	movie	1		281	32.0	2.5	/experiments/Knapen_AOT/AOT_stimuli/rescaled_final/1133_rv.mp4	0.0	191.12381887435913	2.500392436981201
34	171.06579089164734	pulse	1	t		32.0	2.5	/experiments/Knapen_AOT/AOT_stimuli/rescaled_final/1133_rv.mp4	0.0	192.7060306072235	
34	171.98397159576416	fix_post	2		12	32.0	2.5	/experiments/Knapen_AOT/AOT_stimuli/rescaled_final/1133_rv.mp4	0.0	193.62421131134033	0.10003829002380371
35	172.08400988578796	fix_pre	0		120	33.0	2.5	blank	1.0	193.72424960136414	1.0000975131988525
35	172.66758489608765	pulse	0	t		33.0	2.5	blank	1.0	194.30782461166382	
35	173.08410739898682	movie	1		300	33.0	2.5	blank	1.0	194.724347114563	2.500382900238037
35	174.2678575515747	pulse	1	t		33.0	2.5	blank	1.0	195.90809726715088	
35	175.58449029922485	fix_post	2		12	33.0	2.5	blank	1.0	197.22473001480103	0.10001039505004883
36	175.6845006942749	fix_pre	0		120	34.0	2.5	/experiments/Knapen_AOT/AOT_stimuli/rescaled_final/0215_fw.mp4	0.0	197.32474040985107	1.008523941040039
36	175.86809182167053	pulse	0	t		34.0	2.5	/experiments/Knapen_AOT/AOT_stimuli/rescaled_final/0215_fw.mp4	0.0	197.5083315372467	
36	176.69302463531494	movie	1		277	34.0	2.5	/experiments/Knapen_AOT/AOT_stimuli/rescaled_final/0215_fw.mp4	0.0	198.3332643508911	2.492016553878784
36	177.46733403205872	pulse	1	t		34.0	2.5	/experiments/Knapen_AOT/AOT_stimuli/rescaled_final/0215_fw.mp4	0.0	199.1075737476349	
36	179.0668330192566	pulse	1	t		34.0	2.5	/experiments/Knapen_AOT/AOT_stimuli/rescaled_final/0215_fw.mp4	0.0	200.70707273483276	
36	179.18504118919373	fix_post	2		12	34.0	2.5	/experiments/Knapen_AOT/AOT_stimuli/rescaled_final/0215_fw.mp4	0.0	200.8252809047699	0.10003161430358887
37	179.28507280349731	fix_pre	0		120	35.0	2.5	/experiments/Knapen_AOT/AOT_stimuli/rescaled_final/0395_fw.mp4	0.0	200.9253125190735	1.0085020065307617
37	180.29357481002808	movie	1		283	35.0	2.5	/experiments/Knapen_AOT/AOT_stimuli/rescaled_final/0395_fw.mp4	0.0	201.93381452560425	2.4920217990875244
37	180.66830134391785	pulse	1	t		35.0	2.5	/experiments/Knapen_AOT/AOT_stimuli/rescaled_final/0395_fw.mp4	0.0	202.30854105949402	
37	182.2670397758484	pulse	1	t		35.0	2.5	/experiments/Knapen_AOT/AOT_stimuli/rescaled_final/0395_fw.mp4	0.0	203.90727949142456	
37	182.7855966091156	fix_post	2		12	35.0	2.5	/experiments/Knapen_AOT/AOT_stimuli/rescaled_final/0395_fw.mp4	0.0	204.42583632469177	0.10000753402709961
38	182.8856041431427	fix_pre	0		119	36.0	2.5	/experiments/Knapen_AOT/AOT_stimuli/rescaled_final/0834_rv.mp4	0.0	204.52584385871887	1.0001628398895264
38	183.86923050880432	pulse	0	t		36.0	2.5	/experiments/Knapen_AOT/AOT_stimuli/rescaled_final/0834_rv.mp4	0.0	205.5094702243805	
38	183.88576698303223	movie	1		285	36.0	2.5	/experiments/Knapen_AOT/AOT_stimuli/rescaled_final/0834_rv.mp4	0.0	205.5260066986084	2.508697748184204
38	185.4682023525238	pulse	1	t		36.0	2.5	/experiments/Knapen_AOT/AOT_stimuli/rescaled_final/0834_rv.mp4	0.0	207.10844206809998	
38	186.39446473121643	fix_post	2		11	36.0	2.5	/experiments/Knapen_AOT/AOT_stimuli/rescaled_final/0834_rv.mp4	0.0	208.0347044467926	0.09172368049621582
39	186.48618841171265	fix_pre	0		120	37.0	2.5	/experiments/Knapen_AOT/AOT_stimuli/rescaled_final/0551_fw.mp4	0.0	208.12642812728882	1.0085334777832031
39	187.06967878341675	pulse	0	t		37.0	2.5	/experiments/Knapen_AOT/AOT_stimuli/rescaled_final/0551_fw.mp4	0.0	208.70991849899292	
39	187.49472188949585	movie	1		277	37.0	2.5	/experiments/Knapen_AOT/AOT_stimuli/rescaled_final/0551_fw.mp4	0.0	209.13496160507202	2.4920010566711426
39	188.66817784309387	pulse	1	t		37.0	2.5	/experiments/Knapen_AOT/AOT_stimuli/rescaled_final/0551_fw.mp4	0.0	210.30841755867004	
39	189.986722946167	fix_post	2		12	37.0	2.5	/experiments/Knapen_AOT/AOT_stimuli/rescaled_final/0551_fw.mp4	0.0	211.62696266174316	0.09994983673095703
40	190.08667278289795	fix_pre	0		120	38.0	2.5	/experiments/Knapen_AOT/AOT_stimuli/rescaled_final/1705_fw.mp4	0.0	211.72691249847412	1.0085093975067139
40	190.26219487190247	pulse	0	t		38.0	2.5	/experiments/Knapen_AOT/AOT_stimuli/rescaled_final/1705_fw.mp4	0.0	211.90243458747864	
40	191.09518218040466	movie	1		286	38.0	2.5	/experiments/Knapen_AOT/AOT_stimuli/rescaled_final/1705_fw.mp4	0.0	212.73542189598083	2.492011785507202
40	191.86229920387268	pulse	1	t		38.0	2.5	/experiments/Knapen_AOT/AOT_stimuli/rescaled_final/1705_fw.mp4	0.0	213.50253891944885	
40	193.46233701705933	pulse	1	t		38.0	2.5	/experiments/Knapen_AOT/AOT_stimuli/rescaled_final/1705_fw.mp4	0.0	215.1025767326355	
40	193.58719396591187	fix_post	2		12	38.0	2.5	/experiments/Knapen_AOT/AOT_stimuli/rescaled_final/1705_fw.mp4	0.0	215.22743368148804	0.10015869140625
41	193.68735265731812	fix_pre	0		120	39.0	2.5	/experiments/Knapen_AOT/AOT_stimuli/rescaled_final/1458_fw.mp4	0.0	215.3275923728943	1.0083630084991455
41	194.69571566581726	movie	1		273	39.0	2.5	/experiments/Knapen_AOT/AOT_stimuli/rescaled_final/1458_fw.mp4	0.0	216.33595538139343	2.4920167922973633
41	195.06259870529175	pulse	1	t		39.0	2.5	/experiments/Knapen_AOT/AOT_stimuli/rescaled_final/1458_fw.mp4	0.0	216.70283842086792	
41	196.66281628608704	pulse	1	t		39.0	2.5	/experiments/Knapen_AOT/AOT_stimuli/rescaled_final/1458_fw.mp4	0.0	218.3030560016632	
41	197.18773245811462	fix_post	2		12	39.0	2.5	/experiments/Knapen_AOT/AOT_stimuli/rescaled_final/1458_fw.mp4	0.0	218.8279721736908	0.10004997253417969
42	197.2877824306488	fix_pre	0		118	40.0	2.5	blank	1.0	218.92802214622498	0.9834434986114502
42	198.2632758617401	pulse	0	t		40.0	2.5	blank	1.0	219.90351557731628	
42	198.27122592926025	movie	1		301	40.0	2.5	blank	1.0	219.91146564483643	2.5087218284606934
42	199.86359405517578	pulse	1	t		40.0	2.5	blank	1.0	221.50383377075195	
42	200.77994775772095	fix_post	2		12	40.0	2.5	blank	1.0	222.42018747329712	0.10002827644348145
43	200.87997603416443	fix_pre	0		120	41.0	2.5	/experiments/Knapen_AOT/AOT_stimuli/rescaled_final/0582_fw.mp4	0.0	222.5202157497406	1.0085742473602295
43	201.46362709999084	pulse	0	t		41.0	2.5	/experiments/Knapen_AOT/AOT_stimuli/rescaled_final/0582_fw.mp4	0.0	223.10386681556702	
43	201.88855028152466	movie	1		272	41.0	2.5	/experiments/Knapen_AOT/AOT_stimuli/rescaled_final/0582_fw.mp4	0.0	223.52878999710083	2.4919352531433105
43	203.06406235694885	pulse	1	t		41.0	2.5	/experiments/Knapen_AOT/AOT_stimuli/rescaled_final/0582_fw.mp4	0.0	224.70430207252502	
43	204.38048553466797	fix_post	2		12	41.0	2.5	/experiments/Knapen_AOT/AOT_stimuli/rescaled_final/0582_fw.mp4	0.0	226.02072525024414	0.1000211238861084
44	204.48050665855408	fix_pre	0		120	42.0	2.5	/experiments/Knapen_AOT/AOT_stimuli/rescaled_final/1865_fw.mp4	0.0	226.12074637413025	1.0086543560028076
44	204.66400575637817	pulse	0	t		42.0	2.5	/experiments/Knapen_AOT/AOT_stimuli/rescaled_final/1865_fw.mp4	0.0	226.30424547195435	
44	205.48916101455688	movie	1		281	42.0	2.5	/experiments/Knapen_AOT/AOT_stimuli/rescaled_final/1865_fw.mp4	0.0	227.12940073013306	2.4918782711029053
44	206.26462650299072	pulse	1	t		42.0	2.5	/experiments/Knapen_AOT/AOT_stimuli/rescaled_final/1865_fw.mp4	0.0	227.9048662185669	
44	207.8628489971161	pulse	1	t		42.0	2.5	/experiments/Knapen_AOT/AOT_stimuli/rescaled_final/1865_fw.mp4	0.0	229.50308871269226	
44	207.9810392856598	fix_post	2		12	42.0	2.5	/experiments/Knapen_AOT/AOT_stimuli/rescaled_final/1865_fw.mp4	0.0	229.62127900123596	0.1000370979309082
45	208.0810763835907	fix_pre	0		120	43.0	2.5	/experiments/Knapen_AOT/AOT_stimuli/rescaled_final/1947_rv.mp4	0.0	229.72131609916687	1.008500099182129
45	209.08957648277283	movie	1		267	43.0	2.5	/experiments/Knapen_AOT/AOT_stimuli/rescaled_final/1947_rv.mp4	0.0	230.729816198349	2.4919941425323486
45	209.4634280204773	pulse	1	t		43.0	2.5	/experiments/Knapen_AOT/AOT_stimuli/rescaled_final/1947_rv.mp4	0.0	231.10366773605347	
45	211.06303215026855	pulse	1	t		43.0	2.5	/experiments/Knapen_AOT/AOT_stimuli/rescaled_final/1947_rv.mp4	0.0	232.70327186584473	
45	211.58157062530518	fix_post	2		12	43.0	2.5	/experiments/Knapen_AOT/AOT_stimuli/rescaled_final/1947_rv.mp4	0.0	233.22181034088135	0.09999322891235352
46	211.68156385421753	fix_pre	0		119	44.0	2.5	/experiments/Knapen_AOT/AOT_stimuli/rescaled_final/0791_rv.mp4	0.0	233.3218035697937	1.0001990795135498
46	212.66520190238953	pulse	0	t		44.0	2.5	/experiments/Knapen_AOT/AOT_stimuli/rescaled_final/0791_rv.mp4	0.0	234.3054416179657	
46	212.68176293373108	movie	1		279	44.0	2.5	/experiments/Knapen_AOT/AOT_stimuli/rescaled_final/0791_rv.mp4	0.0	234.32200264930725	2.500373125076294
46	214.263934135437	pulse	1	t		44.0	2.5	/experiments/Knapen_AOT/AOT_stimuli/rescaled_final/0791_rv.mp4	0.0	235.90417385101318	
46	215.18213605880737	fix_post	2		12	44.0	2.5	/experiments/Knapen_AOT/AOT_stimuli/rescaled_final/0791_rv.mp4	0.0	236.82237577438354	0.10003352165222168
47	215.2821695804596	fix_pre	0		120	45.0	2.5	/experiments/Knapen_AOT/AOT_stimuli/rescaled_final/1604_rv.mp4	0.0	236.92240929603577	1.0084648132324219
47	215.86575412750244	pulse	0	t		45.0	2.5	/experiments/Knapen_AOT/AOT_stimuli/rescaled_final/1604_rv.mp4	0.0	237.5059938430786	
47	216.29063439369202	movie	1		263	45.0	2.5	/experiments/Knapen_AOT/AOT_stimuli/rescaled_final/1604_rv.mp4	0.0	237.9308741092682	2.4920122623443604
47	217.46428179740906	pulse	1	t		45.0	2.5	/experiments/Knapen_AOT/AOT_stimuli/rescaled_final/1604_rv.mp4	0.0	239.10452151298523	
47	218.78264665603638	fix_post	2		12	45.0	2.5	/experiments/Knapen_AOT/AOT_stimuli/rescaled_final/1604_rv.mp4	0.0	240.42288637161255	0.10002470016479492
48	218.88267135620117	fix_pre	0		120	46.0	2.5	/experiments/Knapen_AOT/AOT_stimuli/rescaled_final/1753_fw.mp4	0.0	240.52291107177734	1.0085506439208984
48	219.06630539894104	pulse	0	t		46.0	2.5	/experiments/Knapen_AOT/AOT_stimuli/rescaled_final/1753_fw.mp4	0.0	240.7065451145172	
48	219.89122200012207	movie	1		287	46.0	2.5	/experiments/Knapen_AOT/AOT_stimuli/rescaled_final/1753_fw.mp4	0.0	241.53146171569824	2.492034912109375
48	220.66477870941162	pulse	1	t		46.0	2.5	/experiments/Knapen_AOT/AOT_stimuli/rescaled_final/1753_fw.mp4	0.0	242.3050184249878	
48	222.26493310928345	pulse	1	t		46.0	2.5	/experiments/Knapen_AOT/AOT_stimuli/rescaled_final/1753_fw.mp4	0.0	243.90517282485962	
48	222.38325691223145	fix_post	2		12	46.0	2.5	/experiments/Knapen_AOT/AOT_stimuli/rescaled_final/1753_fw.mp4	0.0	244.02349662780762	0.10009932518005371
49	222.4833562374115	fix_pre	0		120	47.0	2.5	/experiments/Knapen_AOT/AOT_stimuli/rescaled_final/0821_rv.mp4	0.0	244.12359595298767	1.0083518028259277
49	223.49170804023743	movie	1		269	47.0	2.5	/experiments/Knapen_AOT/AOT_stimuli/rescaled_final/0821_rv.mp4	0.0	245.1319477558136	2.492098093032837
49	223.865407705307	pulse	1	t		47.0	2.5	/experiments/Knapen_AOT/AOT_stimuli/rescaled_final/0821_rv.mp4	0.0	245.50564742088318	
49	225.46556878089905	pulse	1	t		47.0	2.5	/experiments/Knapen_AOT/AOT_stimuli/rescaled_final/0821_rv.mp4	0.0	247.10580849647522	
49	225.98380613327026	fix_post	2		12	47.0	2.5	/experiments/Knapen_AOT/AOT_stimuli/rescaled_final/0821_rv.mp4	0.0	247.62404584884644	0.09997963905334473
50	226.0837857723236	fix_pre	0		119	48.0	2.5	blank	1.0	247.72402548789978	0.9917726516723633
50	227.06751656532288	pulse	0	t		48.0	2.5	blank	1.0	248.70775628089905	
50	227.07555842399597	movie	1		301	48.0	2.5	blank	1.0	248.71579813957214	2.5087132453918457
50	228.6676857471466	pulse	1	t		48.0	2.5	blank	1.0	250.30792546272278	
50	229.58427166938782	fix_post	2		12	48.0	2.5	blank	1.0	251.224511384964	0.10002470016479492
51	229.6842963695526	fix_pre	0		120	49.0	2.5	/experiments/Knapen_AOT/AOT_stimuli/rescaled_final/2136_fw.mp4	0.0	251.32453608512878	1.0085012912750244
51	230.2679488658905	pulse	0	t		49.0	2.5	/experiments/Knapen_AOT/AOT_stimuli/rescaled_final/2136_fw.mp4	0.0	251.90818858146667	
51	230.69279766082764	movie	1		283	49.0	2.5	/experiments/Knapen_AOT/AOT_stimuli/rescaled_final/2136_fw.mp4	0.0	252.3330373764038	2.492013454437256
51	231.86691641807556	pulse	1	t		49.0	2.5	/experiments/Knapen_AOT/AOT_stimuli/rescaled_final/2136_fw.mp4	0.0	253.50715613365173	
51	233.1848111152649	fix_post	2		12	49.0	2.5	/experiments/Knapen_AOT/AOT_stimuli/rescaled_final/2136_fw.mp4	0.0	254.82505083084106	0.10002255439758301
52	233.28483366966248	fix_pre	0		120	50.0	2.5	/experiments/Knapen_AOT/AOT_stimuli/rescaled_final/0564_rv.mp4	0.0	254.92507338523865	1.008465051651001
52	233.46842622756958	pulse	0	t		50.0	2.5	/experiments/Knapen_AOT/AOT_stimuli/rescaled_final/0564_rv.mp4	0.0	255.10866594314575	
52	234.29329872131348	movie	1		283	50.0	2.5	/experiments/Knapen_AOT/AOT_stimuli/rescaled_final/0564_rv.mp4	0.0	255.93353843688965	2.492088556289673
52	235.06689381599426	pulse	1	t		50.0	2.5	/experiments/Knapen_AOT/AOT_stimuli/rescaled_final/0564_rv.mp4	0.0	256.70713353157043	
52	236.6670982837677	pulse	1	t		50.0	2.5	/experiments/Knapen_AOT/AOT_stimuli/rescaled_final/0564_rv.mp4	0.0	258.3073379993439	
52	236.78538727760315	fix_post	2		12	50.0	2.5	/experiments/Knapen_AOT/AOT_stimuli/rescaled_final/0564_rv.mp4	0.0	258.4256269931793	0.09999775886535645
53	236.8853850364685	fix_pre	0		120	51.0	2.5	/experiments/Knapen_AOT/AOT_stimuli/rescaled_final/1006_fw.mp4	0.0	258.5256247520447	1.0085148811340332
53	237.89389991760254	movie	1		277	51.0	2.5	/experiments/Knapen_AOT/AOT_stimuli/rescaled_final/1006_fw.mp4	0.0	259.5341396331787	2.4920613765716553
53	238.26914167404175	pulse	1	t		51.0	2.5	/experiments/Knapen_AOT/AOT_stimuli/rescaled_final/1006_fw.mp4	0.0	259.9093813896179	
53	239.86745810508728	pulse	1	t		51.0	2.5	/experiments/Knapen_AOT/AOT_stimuli/rescaled_final/1006_fw.mp4	0.0	261.50769782066345	
53	240.3859612941742	fix_post	2		12	51.0	2.5	/experiments/Knapen_AOT/AOT_stimuli/rescaled_final/1006_fw.mp4	0.0	262.02620100975037	0.09996676445007324
54	240.48592805862427	fix_pre	0		119	52.0	2.5	/experiments/Knapen_AOT/AOT_stimuli/rescaled_final/1815_fw.mp4	0.0	262.12616777420044	1.008589744567871
54	241.4697744846344	pulse	0	t		52.0	2.5	/experiments/Knapen_AOT/AOT_stimuli/rescaled_final/1815_fw.mp4	0.0	263.11001420021057	
54	241.49451780319214	movie	1		266	52.0	2.5	/experiments/Knapen_AOT/AOT_stimuli/rescaled_final/1815_fw.mp4	0.0	263.1347575187683	2.491908311843872
54	243.0692014694214	pulse	1	t		52.0	2.5	/experiments/Knapen_AOT/AOT_stimuli/rescaled_final/1815_fw.mp4	0.0	264.70944118499756	
54	243.986426115036	fix_post	2		12	52.0	2.5	/experiments/Knapen_AOT/AOT_stimuli/rescaled_final/1815_fw.mp4	0.0	265.6266658306122	0.1000220775604248
55	244.08644819259644	fix_pre	0		120	53.0	2.5	/experiments/Knapen_AOT/AOT_stimuli/rescaled_final/0171_rv.mp4	0.0	265.7266879081726	1.0085334777832031
55	244.66291761398315	pulse	0	t		53.0	2.5	/experiments/Knapen_AOT/AOT_stimuli/rescaled_final/0171_rv.mp4	0.0	266.3031573295593	
55	245.09498167037964	movie	1		287	53.0	2.5	/experiments/Knapen_AOT/AOT_stimuli/rescaled_final/0171_rv.mp4	0.0	266.7352213859558	2.500417470932007
55	246.26857233047485	pulse	1	t		53.0	2.5	/experiments/Knapen_AOT/AOT_stimuli/rescaled_final/0171_rv.mp4	0.0	267.908812046051	
55	247.59539914131165	fix_post	2		11	53.0	2.5	/experiments/Knapen_AOT/AOT_stimuli/rescaled_final/0171_rv.mp4	0.0	269.2356388568878	0.0915827751159668
56	247.6869819164276	fix_pre	0		120	54.0	2.5	blank	1.0	269.3272216320038	1.000162124633789
56	247.8627712726593	pulse	0	t		54.0	2.5	blank	1.0	269.5030109882355	
56	248.6871440410614	movie	1		300	54.0	2.5	blank	1.0	270.3273837566376	2.500378370285034
56	249.46261072158813	pulse	1	t		54.0	2.5	blank	1.0	271.1028504371643	
56	251.06292462348938	pulse	1	t		54.0	2.5	blank	1.0	272.70316433906555	
56	251.18752241134644	fix_post	2		12	54.0	2.5	blank	1.0	272.8277621269226	0.10007476806640625
57	251.28759717941284	fix_pre	0		120	55.0	2.5	/experiments/Knapen_AOT/AOT_stimuli/rescaled_final/1944_fw.mp4	0.0	272.927836894989	1.0084946155548096
57	252.29609179496765	movie	1		278	55.0	2.5	/experiments/Knapen_AOT/AOT_stimuli/rescaled_final/1944_fw.mp4	0.0	273.9363315105438	2.492011070251465
57	252.66323328018188	pulse	1	t		55.0	2.5	/experiments/Knapen_AOT/AOT_stimuli/rescaled_final/1944_fw.mp4	0.0	274.30347299575806	
57	254.26355147361755	pulse	1	t		55.0	2.5	/experiments/Knapen_AOT/AOT_stimuli/rescaled_final/1944_fw.mp4	0.0	275.9037911891937	
57	254.78810286521912	fix_post	2		12	55.0	2.5	/experiments/Knapen_AOT/AOT_stimuli/rescaled_final/1944_fw.mp4	0.0	276.4283425807953	0.1000053882598877
58	254.888108253479	fix_pre	0		118	56.0	2.5	/experiments/Knapen_AOT/AOT_stimuli/rescaled_final/1947_fw.mp4	0.0	276.5283479690552	0.9918005466461182
58	255.8634762763977	pulse	0	t		56.0	2.5	/experiments/Knapen_AOT/AOT_stimuli/rescaled_final/1947_fw.mp4	0.0	277.5037159919739	
58	255.87990880012512	movie	1		278	56.0	2.5	/experiments/Knapen_AOT/AOT_stimuli/rescaled_final/1947_fw.mp4	0.0	277.5201485157013	2.5003693103790283
58	257.4637780189514	pulse	1	t		56.0	2.5	/experiments/Knapen_AOT/AOT_stimuli/rescaled_final/1947_fw.mp4	0.0	279.1040177345276	
58	258.38027811050415	fix_post	2		12	56.0	2.5	/experiments/Knapen_AOT/AOT_stimuli/rescaled_final/1947_fw.mp4	0.0	280.0205178260803	0.10001540184020996
59	258.48029351234436	fix_pre	0		120	57.0	2.5	/experiments/Knapen_AOT/AOT_stimuli/rescaled_final/2173_fw.mp4	0.0	280.12053322792053	1.0085301399230957
59	259.0639600753784	pulse	0	t		57.0	2.5	/experiments/Knapen_AOT/AOT_stimuli/rescaled_final/2173_fw.mp4	0.0	280.7041997909546	
59	259.48882365226746	movie	1		278	57.0	2.5	/experiments/Knapen_AOT/AOT_stimuli/rescaled_final/2173_fw.mp4	0.0	281.1290633678436	2.491987466812134
59	260.66421723365784	pulse	1	t		57.0	2.5	/experiments/Knapen_AOT/AOT_stimuli/rescaled_final/2173_fw.mp4	0.0	282.304456949234	
59	261.9808111190796	fix_post	2		12	57.0	2.5	/experiments/Knapen_AOT/AOT_stimuli/rescaled_final/2173_fw.mp4	0.0	283.62105083465576	0.10002565383911133
60	262.0808367729187	fix_pre	0		120	58.0	2.5	/experiments/Knapen_AOT/AOT_stimuli/rescaled_final/1983_fw.mp4	0.0	283.7210764884949	1.008500576019287
60	262.26438450813293	pulse	0	t		58.0	2.5	/experiments/Knapen_AOT/AOT_stimuli/rescaled_final/1983_fw.mp4	0.0	283.9046242237091	
60	263.089337348938	movie	1		286	58.0	2.5	/experiments/Knapen_AOT/AOT_stimuli/rescaled_final/1983_fw.mp4	0.0	284.72957706451416	2.492030620574951
60	263.86277532577515	pulse	1	t		58.0	2.5	/experiments/Knapen_AOT/AOT_stimuli/rescaled_final/1983_fw.mp4	0.0	285.5030150413513	
60	265.46302366256714	pulse	1	t		58.0	2.5	/experiments/Knapen_AOT/AOT_stimuli/rescaled_final/1983_fw.mp4	0.0	287.1032633781433	
60	265.58136796951294	fix_post	2		11	58.0	2.5	/experiments/Knapen_AOT/AOT_stimuli/rescaled_final/1983_fw.mp4	0.0	287.2216076850891	0.10004925727844238
61	265.6814172267914	fix_pre	0		120	59.0	2.5	/experiments/Knapen_AOT/AOT_stimuli/rescaled_final/1735_fw.mp4	0.0	287.32165694236755	1.0084664821624756
61	266.68988370895386	movie	1		280	59.0	2.5	/experiments/Knapen_AOT/AOT_stimuli/rescaled_final/1735_fw.mp4	0.0	288.33012342453003	2.492035388946533
61	267.0638175010681	pulse	1	t		59.0	2.5	/experiments/Knapen_AOT/AOT_stimuli/rescaled_final/1735_fw.mp4	0.0	288.7040572166443	
61	268.66353154182434	pulse	1	t		59.0	2.5	/experiments/Knapen_AOT/AOT_stimuli/rescaled_final/1735_fw.mp4	0.0	290.3037712574005	
61	269.1819190979004	fix_post	2		12	59.0	2.5	/experiments/Knapen_AOT/AOT_stimuli/rescaled_final/1735_fw.mp4	0.0	290.82215881347656	0.10001468658447266
62	269.28193378448486	fix_pre	0		119	60.0	2.5	/experiments/Knapen_AOT/AOT_stimuli/rescaled_final/1893_fw.mp4	0.0	290.92217350006104	1.0003390312194824
62	270.26563119888306	pulse	0	t		60.0	2.5	/experiments/Knapen_AOT/AOT_stimuli/rescaled_final/1893_fw.mp4	0.0	291.90587091445923	
62	270.28227281570435	movie	1		289	60.0	2.5	/experiments/Knapen_AOT/AOT_stimuli/rescaled_final/1893_fw.mp4	0.0	291.9225125312805	2.500187635421753
62	271.86446046829224	pulse	1	t		60.0	2.5	/experiments/Knapen_AOT/AOT_stimuli/rescaled_final/1893_fw.mp4	0.0	293.5047001838684	
62	272.7824604511261	fix_post	2		12	60.0	2.5	/experiments/Knapen_AOT/AOT_stimuli/rescaled_final/1893_fw.mp4	0.0	294.42270016670227	0.10002398490905762
63	272.88248443603516	fix_pre	0		120	61.0	2.5	/experiments/Knapen_AOT/AOT_stimuli/rescaled_final/0859_rv.mp4	0.0	294.5227241516113	1.008556842803955
63	273.4665620326996	pulse	0	t		61.0	2.5	/experiments/Knapen_AOT/AOT_stimuli/rescaled_final/0859_rv.mp4	0.0	295.10680174827576	
63	273.8910412788391	movie	1		275	61.0	2.5	/experiments/Knapen_AOT/AOT_stimuli/rescaled_final/0859_rv.mp4	0.0	295.5312809944153	2.4919707775115967
63	275.0665330886841	pulse	1	t		61.0	2.5	/experiments/Knapen_AOT/AOT_stimuli/rescaled_final/0859_rv.mp4	0.0	296.70677280426025	
63	276.3830120563507	fix_post	2		12	61.0	2.5	/experiments/Knapen_AOT/AOT_stimuli/rescaled_final/0859_rv.mp4	0.0	298.0232517719269	0.10002899169921875
64	276.4830410480499	fix_pre	0		120	62.0	2.5	/experiments/Knapen_AOT/AOT_stimuli/rescaled_final/2167_fw.mp4	0.0	298.1232807636261	1.008514642715454
64	276.6666076183319	pulse	0	t		62.0	2.5	/experiments/Knapen_AOT/AOT_stimuli/rescaled_final/2167_fw.mp4	0.0	298.3068473339081	
64	277.4915556907654	movie	1		274	62.0	2.5	/experiments/Knapen_AOT/AOT_stimuli/rescaled_final/2167_fw.mp4	0.0	299.13179540634155	2.491973638534546
64	278.2651426792145	pulse	1	t		62.0	2.5	/experiments/Knapen_AOT/AOT_stimuli/rescaled_final/2167_fw.mp4	0.0	299.90538239479065	
64	279.8654098510742	pulse	1	t		62.0	2.5	/experiments/Knapen_AOT/AOT_stimuli/rescaled_final/2167_fw.mp4	0.0	301.5056495666504	
64	279.9835293292999	fix_post	2		12	62.0	2.5	/experiments/Knapen_AOT/AOT_stimuli/rescaled_final/2167_fw.mp4	0.0	301.6237690448761	0.10001492500305176
65	280.083544254303	fix_pre	0		120	63.0	2.5	blank	1.0	301.72378396987915	1.0002086162567139
65	281.0837528705597	movie	1		300	63.0	2.5	blank	1.0	302.72399258613586	2.5003244876861572
65	281.4673581123352	pulse	1	t		63.0	2.5	blank	1.0	303.1075978279114	
65	283.06751775741577	pulse	1	t		63.0	2.5	blank	1.0	304.70775747299194	
65	283.58407735824585	fix_post	2		12	63.0	2.5	blank	1.0	305.224317073822	0.10000944137573242
66	283.6840867996216	fix_pre	0		119	64.0	2.5	/experiments/Knapen_AOT/AOT_stimuli/rescaled_final/0759_rv.mp4	0.0	305.32432651519775	1.008563756942749
66	284.66785740852356	pulse	0	t		64.0	2.5	/experiments/Knapen_AOT/AOT_stimuli/rescaled_final/0759_rv.mp4	0.0	306.30809712409973	
66	284.69265055656433	movie	1		274	64.0	2.5	/experiments/Knapen_AOT/AOT_stimuli/rescaled_final/0759_rv.mp4	0.0	306.3328902721405	2.4919497966766357
66	286.26630187034607	pulse	1	t		64.0	2.5	/experiments/Knapen_AOT/AOT_stimuli/rescaled_final/0759_rv.mp4	0.0	307.90654158592224	
66	287.18460035324097	fix_post	2		12	64.0	2.5	/experiments/Knapen_AOT/AOT_stimuli/rescaled_final/0759_rv.mp4	0.0	308.82484006881714	0.10001826286315918
67	287.2846186161041	fix_pre	0		120	65.0	2.5	/experiments/Knapen_AOT/AOT_stimuli/rescaled_final/1652_rv.mp4	0.0	308.9248583316803	1.0085442066192627
67	287.86833214759827	pulse	0	t		65.0	2.5	/experiments/Knapen_AOT/AOT_stimuli/rescaled_final/1652_rv.mp4	0.0	309.50857186317444	
67	288.2931628227234	movie	1		281	65.0	2.5	/experiments/Knapen_AOT/AOT_stimuli/rescaled_final/1652_rv.mp4	0.0	309.93340253829956	2.4919917583465576
67	289.4665412902832	pulse	1	t		65.0	2.5	/experiments/Knapen_AOT/AOT_stimuli/rescaled_final/1652_rv.mp4	0.0	311.1067810058594	
67	290.78515458106995	fix_post	2		12	65.0	2.5	/experiments/Knapen_AOT/AOT_stimuli/rescaled_final/1652_rv.mp4	0.0	312.4253942966461	0.10002636909484863
68	290.8851809501648	fix_pre	0		120	66.0	2.5	/experiments/Knapen_AOT/AOT_stimuli/rescaled_final/1111_rv.mp4	0.0	312.52542066574097	1.0085055828094482
68	291.0688097476959	pulse	0	t		66.0	2.5	/experiments/Knapen_AOT/AOT_stimuli/rescaled_final/1111_rv.mp4	0.0	312.7090494632721	
68	291.89368653297424	movie	1		264	66.0	2.5	/experiments/Knapen_AOT/AOT_stimuli/rescaled_final/1111_rv.mp4	0.0	313.5339262485504	2.4920427799224854
68	292.6670627593994	pulse	1	t		66.0	2.5	/experiments/Knapen_AOT/AOT_stimuli/rescaled_final/1111_rv.mp4	0.0	314.3073024749756	
68	294.26902747154236	pulse	1	t		66.0	2.5	/experiments/Knapen_AOT/AOT_stimuli/rescaled_final/1111_rv.mp4	0.0	315.90926718711853	
68	294.38572931289673	fix_post	2		12	66.0	2.5	/experiments/Knapen_AOT/AOT_stimuli/rescaled_final/1111_rv.mp4	0.0	316.0259690284729	0.09997010231018066
69	294.4856994152069	fix_pre	0		120	67.0	2.5	/experiments/Knapen_AOT/AOT_stimuli/rescaled_final/1843_fw.mp4	0.0	316.1259391307831	1.0085384845733643
69	295.4942378997803	movie	1		262	67.0	2.5	/experiments/Knapen_AOT/AOT_stimuli/rescaled_final/1843_fw.mp4	0.0	317.13447761535645	2.491990089416504
69	295.8687527179718	pulse	1	t		67.0	2.5	/experiments/Knapen_AOT/AOT_stimuli/rescaled_final/1843_fw.mp4	0.0	317.508992433548	
69	297.4683437347412	pulse	1	t		67.0	2.5	/experiments/Knapen_AOT/AOT_stimuli/rescaled_final/1843_fw.mp4	0.0	319.1085834503174	
69	297.9862279891968	fix_post	2		12	67.0	2.5	/experiments/Knapen_AOT/AOT_stimuli/rescaled_final/1843_fw.mp4	0.0	319.62646770477295	0.10002470016479492
70	298.0862526893616	fix_pre	0		118	68.0	2.5	/experiments/Knapen_AOT/AOT_stimuli/rescaled_final/0437_fw.mp4	0.0	319.72649240493774	0.9918267726898193
70	299.0620651245117	pulse	0	t		68.0	2.5	/experiments/Knapen_AOT/AOT_stimuli/rescaled_final/0437_fw.mp4	0.0	320.7023048400879	
70	299.0780794620514	movie	1		271	68.0	2.5	/experiments/Knapen_AOT/AOT_stimuli/rescaled_final/0437_fw.mp4	0.0	320.71831917762756	2.5003674030303955
70	300.6621890068054	pulse	1	t		68.0	2.5	/experiments/Knapen_AOT/AOT_stimuli/rescaled_final/0437_fw.mp4	0.0	322.3024287223816	
70	301.5784468650818	fix_post	2		12	68.0	2.5	/experiments/Knapen_AOT/AOT_stimuli/rescaled_final/0437_fw.mp4	0.0	323.21868658065796	0.10000014305114746
71	301.67844700813293	fix_pre	0		120	69.0	2.5	/experiments/Knapen_AOT/AOT_stimuli/rescaled_final/1103_rv.mp4	0.0	323.3186867237091	1.0084888935089111
71	302.2622287273407	pulse	0	t		69.0	2.5	/experiments/Knapen_AOT/AOT_stimuli/rescaled_final/1103_rv.mp4	0.0	323.90246844291687	
71	302.68693590164185	movie	1		279	69.0	2.5	/experiments/Knapen_AOT/AOT_stimuli/rescaled_final/1103_rv.mp4	0.0	324.327175617218	2.492039680480957
71	303.8623468875885	pulse	1	t		69.0	2.5	/experiments/Knapen_AOT/AOT_stimuli/rescaled_final/1103_rv.mp4	0.0	325.5025866031647	
71	305.1789755821228	fix_post	2		12	69.0	2.5	/experiments/Knapen_AOT/AOT_stimuli/rescaled_final/1103_rv.mp4	0.0	326.819215297699	0.10002541542053223
72	305.27900099754333	fix_pre	0		120	70.0	2.5	blank	1.0	326.9192407131195	1.0001955032348633
72	305.4625630378723	pulse	0	t		70.0	2.5	blank	1.0	327.1028027534485	
72	306.2791965007782	movie	1		299	70.0	2.5	blank	1.0	327.91943621635437	2.5003397464752197
72	307.0629315376282	pulse	1	t		70.0	2.5	blank	1.0	328.70317125320435	
72	308.6630630493164	pulse	1	t		70.0	2.5	blank	1.0	330.3033027648926	
72	308.7795362472534	fix_post	2		12	70.0	2.5	blank	1.0	330.4197759628296	0.10003972053527832
73	308.8795759677887	fix_pre	0		120	71.0	2.5	/experiments/Knapen_AOT/AOT_stimuli/rescaled_final/1753_rv.mp4	0.0	330.51981568336487	1.008479356765747
73	309.88805532455444	movie	1		288	71.0	2.5	/experiments/Knapen_AOT/AOT_stimuli/rescaled_final/1753_rv.mp4	0.0	331.5282950401306	2.4922029972076416
73	310.2621018886566	pulse	1	t		71.0	2.5	/experiments/Knapen_AOT/AOT_stimuli/rescaled_final/1753_rv.mp4	0.0	331.9023416042328	
73	311.86372327804565	pulse	1	t		71.0	2.5	/experiments/Knapen_AOT/AOT_stimuli/rescaled_final/1753_rv.mp4	0.0	333.5039629936218	
73	312.3802583217621	fix_post	2		12	71.0	2.5	/experiments/Knapen_AOT/AOT_stimuli/rescaled_final/1753_rv.mp4	0.0	334.02049803733826	0.0998082160949707
74	312.48006653785706	fix_pre	0		119	72.0	2.5	/experiments/Knapen_AOT/AOT_stimuli/rescaled_final/0555_rv.mp4	0.0	334.1203062534332	1.0001745223999023
74	313.4639644622803	pulse	0	t		72.0	2.5	/experiments/Knapen_AOT/AOT_stimuli/rescaled_final/0555_rv.mp4	0.0	335.10420417785645	
74	313.48024106025696	movie	1		279	72.0	2.5	/experiments/Knapen_AOT/AOT_stimuli/rescaled_final/0555_rv.mp4	0.0	335.12048077583313	2.5003907680511475
74	315.0627827644348	pulse	1	t		72.0	2.5	/experiments/Knapen_AOT/AOT_stimuli/rescaled_final/0555_rv.mp4	0.0	336.703022480011	
74	315.9806318283081	fix_post	2		12	72.0	2.5	/experiments/Knapen_AOT/AOT_stimuli/rescaled_final/0555_rv.mp4	0.0	337.6208715438843	0.09999656677246094
75	316.08062839508057	fix_pre	0		120	73.0	2.5	/experiments/Knapen_AOT/AOT_stimuli/rescaled_final/1673_rv.mp4	0.0	337.72086811065674	1.008481740951538
75	316.6643087863922	pulse	0	t		73.0	2.5	/experiments/Knapen_AOT/AOT_stimuli/rescaled_final/1673_rv.mp4	0.0	338.3045485019684	
75	317.0891101360321	movie	1		274	73.0	2.5	/experiments/Knapen_AOT/AOT_stimuli/rescaled_final/1673_rv.mp4	0.0	338.7293498516083	2.492086172103882
75	318.2626066207886	pulse	1	t		73.0	2.5	/experiments/Knapen_AOT/AOT_stimuli/rescaled_final/1673_rv.mp4	0.0	339.90284633636475	
75	319.581196308136	fix_post	2		12	73.0	2.5	/experiments/Knapen_AOT/AOT_stimuli/rescaled_final/1673_rv.mp4	0.0	341.22143602371216	0.10004353523254395
76	319.68123984336853	fix_pre	0		120	74.0	2.5	/experiments/Knapen_AOT/AOT_stimuli/rescaled_final/1829_rv.mp4	0.0	341.3214795589447	1.0083932876586914
76	319.8647289276123	pulse	0	t		74.0	2.5	/experiments/Knapen_AOT/AOT_stimuli/rescaled_final/1829_rv.mp4	0.0	341.5049686431885	
76	320.6896331310272	movie	1		262	74.0	2.5	/experiments/Knapen_AOT/AOT_stimuli/rescaled_final/1829_rv.mp4	0.0	342.3298728466034	2.4920732975006104
76	321.4642426967621	pulse	1	t		74.0	2.5	/experiments/Knapen_AOT/AOT_stimuli/rescaled_final/1829_rv.mp4	0.0	343.10448241233826	
76	323.0636591911316	pulse	1	t		74.0	2.5	/experiments/Knapen_AOT/AOT_stimuli/rescaled_final/1829_rv.mp4	0.0	344.70389890670776	
76	323.18170642852783	fix_post	2		12	74.0	2.5	/experiments/Knapen_AOT/AOT_stimuli/rescaled_final/1829_rv.mp4	0.0	344.821946144104	0.09998655319213867
77	323.28169298171997	fix_pre	0		120	75.0	2.5	blank	1.0	344.92193269729614	1.0001442432403564
77	324.2818372249603	movie	1		300	75.0	2.5	blank	1.0	345.9220769405365	2.5003669261932373
77	324.6655328273773	pulse	1	t		75.0	2.5	blank	1.0	346.3057725429535	
77	326.2657582759857	pulse	1	t		75.0	2.5	blank	1.0	347.9059979915619	
77	326.78220415115356	fix_post	2		12	75.0	2.5	blank	1.0	348.42244386672974	0.10003352165222168
78	326.8822376728058	fix_pre	0		119	76.0	2.5	/experiments/Knapen_AOT/AOT_stimuli/rescaled_final/1864_fw.mp4	0.0	348.52247738838196	1.0001564025878906
78	327.86600160598755	pulse	0	t		76.0	2.5	/experiments/Knapen_AOT/AOT_stimuli/rescaled_final/1864_fw.mp4	0.0	349.5062413215637	
78	327.8823940753937	movie	1		285	76.0	2.5	/experiments/Knapen_AOT/AOT_stimuli/rescaled_final/1864_fw.mp4	0.0	349.52263379096985	2.5003974437713623
78	329.46523237228394	pulse	1	t		76.0	2.5	/experiments/Knapen_AOT/AOT_stimuli/rescaled_final/1864_fw.mp4	0.0	351.1054720878601	
78	330.38279151916504	fix_post	2		12	76.0	2.5	/experiments/Knapen_AOT/AOT_stimuli/rescaled_final/1864_fw.mp4	0.0	352.0230312347412	0.0999910831451416
79	330.4827826023102	fix_pre	0		120	77.0	2.5	/experiments/Knapen_AOT/AOT_stimuli/rescaled_final/1388_fw.mp4	0.0	352.12302231788635	1.0086839199066162
79	331.0665109157562	pulse	0	t		77.0	2.5	/experiments/Knapen_AOT/AOT_stimuli/rescaled_final/1388_fw.mp4	0.0	352.7067506313324	
79	331.4914665222168	movie	1		288	77.0	2.5	/experiments/Knapen_AOT/AOT_stimuli/rescaled_final/1388_fw.mp4	0.0	353.13170623779297	2.491832971572876
79	332.6650195121765	pulse	1	t		77.0	2.5	/experiments/Knapen_AOT/AOT_stimuli/rescaled_final/1388_fw.mp4	0.0	354.3052592277527	
79	333.9832994937897	fix_post	2		12	77.0	2.5	/experiments/Knapen_AOT/AOT_stimuli/rescaled_final/1388_fw.mp4	0.0	355.62353920936584	0.1000204086303711
80	334.08331990242004	fix_pre	0		120	78.0	2.5	/experiments/Knapen_AOT/AOT_stimuli/rescaled_final/0966_fw.mp4	0.0	355.7235596179962	1.0085349082946777
80	334.26689863204956	pulse	0	t		78.0	2.5	/experiments/Knapen_AOT/AOT_stimuli/rescaled_final/0966_fw.mp4	0.0	355.90713834762573	
80	335.0918548107147	movie	1		279	78.0	2.5	/experiments/Knapen_AOT/AOT_stimuli/rescaled_final/0966_fw.mp4	0.0	356.7320945262909	2.492023468017578
80	335.8654773235321	pulse	1	t		78.0	2.5	/experiments/Knapen_AOT/AOT_stimuli/rescaled_final/0966_fw.mp4	0.0	357.5057170391083	
80	337.4657733440399	pulse	1	t		78.0	2.5	/experiments/Knapen_AOT/AOT_stimuli/rescaled_final/0966_fw.mp4	0.0	359.1060130596161	
80	337.5838782787323	fix_post	2		12	78.0	2.5	/experiments/Knapen_AOT/AOT_stimuli/rescaled_final/0966_fw.mp4	0.0	359.2241179943085	0.09998416900634766
81	337.68386244773865	fix_pre	0		120	79.0	2.5	/experiments/Knapen_AOT/AOT_stimuli/rescaled_final/0466_fw.mp4	0.0	359.3241021633148	1.0084989070892334
81	338.6923613548279	movie	1		286	79.0	2.5	/experiments/Knapen_AOT/AOT_stimuli/rescaled_final/0466_fw.mp4	0.0	360.33260107040405	2.492034912109375
81	339.0660765171051	pulse	1	t		79.0	2.5	/experiments/Knapen_AOT/AOT_stimuli/rescaled_final/0466_fw.mp4	0.0	360.7063162326813	
81	340.66562151908875	pulse	1	t		79.0	2.5	/experiments/Knapen_AOT/AOT_stimuli/rescaled_final/0466_fw.mp4	0.0	362.3058612346649	
81	341.18439626693726	fix_post	2		12	79.0	2.5	/experiments/Knapen_AOT/AOT_stimuli/rescaled_final/0466_fw.mp4	0.0	362.8246359825134	0.10006308555603027
82	341.2844593524933	fix_pre	0		119	80.0	2.5	/experiments/Knapen_AOT/AOT_stimuli/rescaled_final/1943_fw.mp4	0.0	362.92469906806946	1.000091552734375
82	342.26822113990784	pulse	0	t		80.0	2.5	/experiments/Knapen_AOT/AOT_stimuli/rescaled_final/1943_fw.mp4	0.0	363.908460855484	
82	342.28455090522766	movie	1		288	80.0	2.5	/experiments/Knapen_AOT/AOT_stimuli/rescaled_final/1943_fw.mp4	0.0	363.92479062080383	2.5004537105560303
82	343.8669340610504	pulse	1	t		80.0	2.5	/experiments/Knapen_AOT/AOT_stimuli/rescaled_final/1943_fw.mp4	0.0	365.5071737766266	
82	344.7850046157837	fix_post	2		12	80.0	2.5	/experiments/Knapen_AOT/AOT_stimuli/rescaled_final/1943_fw.mp4	0.0	366.42524433135986	0.10000920295715332
83	344.88501381874084	fix_pre	0		120	81.0	2.5	/experiments/Knapen_AOT/AOT_stimuli/rescaled_final/1843_rv.mp4	0.0	366.525253534317	1.0085089206695557
83	345.4686543941498	pulse	0	t		81.0	2.5	/experiments/Knapen_AOT/AOT_stimuli/rescaled_final/1843_rv.mp4	0.0	367.10889410972595	
83	345.8935227394104	movie	1		282	81.0	2.5	/experiments/Knapen_AOT/AOT_stimuli/rescaled_final/1843_rv.mp4	0.0	367.5337624549866	2.491981029510498
83	347.0677468776703	pulse	1	t		81.0	2.5	/experiments/Knapen_AOT/AOT_stimuli/rescaled_final/1843_rv.mp4	0.0	368.70798659324646	
83	348.3855037689209	fix_post	2		12	81.0	2.5	/experiments/Knapen_AOT/AOT_stimuli/rescaled_final/1843_rv.mp4	0.0	370.02574348449707	0.09997773170471191
84	348.4854815006256	fix_pre	0		120	82.0	2.5	/experiments/Knapen_AOT/AOT_stimuli/rescaled_final/1815_fw.mp4	0.0	370.1257212162018	1.008500099182129
84	348.6691324710846	pulse	0	t		82.0	2.5	/experiments/Knapen_AOT/AOT_stimuli/rescaled_final/1815_fw.mp4	0.0	370.30937218666077	
84	349.49398159980774	movie	1		265	82.0	2.5	/experiments/Knapen_AOT/AOT_stimuli/rescaled_final/1815_fw.mp4	0.0	371.1342213153839	2.4920644760131836
84	350.26907658576965	pulse	1	t		82.0	2.5	/experiments/Knapen_AOT/AOT_stimuli/rescaled_final/1815_fw.mp4	0.0	371.9093163013458	
84	351.86797070503235	pulse	1	t		82.0	2.5	/experiments/Knapen_AOT/AOT_stimuli/rescaled_final/1815_fw.mp4	0.0	373.5082104206085	
84	351.9860460758209	fix_post	2		12	82.0	2.5	/experiments/Knapen_AOT/AOT_stimuli/rescaled_final/1815_fw.mp4	0.0	373.6262857913971	0.10000252723693848
85	352.08604860305786	fix_pre	0		120	83.0	2.5	blank	1.0	373.72628831863403	1.000171422958374
85	353.08622002601624	movie	1		300	83.0	2.5	blank	1.0	374.7264597415924	2.500339984893799
85	353.4700012207031	pulse	1	t		83.0	2.5	blank	1.0	375.1102409362793	
85	355.0700628757477	pulse	1	t		83.0	2.5	blank	1.0	376.71030259132385	
85	355.58656001091003	fix_post	2		12	83.0	2.5	blank	1.0	377.2267997264862	0.10003232955932617
87	355.68659234046936	stim	0		1715					377.32683205604553	14.29378604888916
87	356.663302898407	pulse	0	t						378.30354261398315	
87	358.26266527175903	pulse	0	t						379.9029049873352	
87	359.86273407936096	pulse	0	t						381.50297379493713	
87	361.46315026283264	pulse	0	t						383.1033899784088	
87	363.06318521499634	pulse	0	t						384.7034249305725	
87	364.664053440094	pulse	0	t						386.30429315567017	
87	366.2639968395233	pulse	0	t						387.9042365550995	
87	367.8640687465668	pulse	0	t						389.50430846214294	
87	369.4641110897064	pulse	0	t						391.1043508052826	
