trial_nr	onset	event_type	phase	response	nr_frames	movie_index	movie_duration	movie_file	blank	onset_abs	duration
0	0.13347291946411133	stim	0		22					34.938456773757935	0.18316197395324707
0	0.30866289138793945	response	0	space						35.11364674568176	
1	0.3166348934173584	stim	0		4741					35.12161874771118	39.508119106292725
1	39.8201379776001	pulse	0	t						74.62512183189392	
1	39.82475399971008	stim	1		1717					74.6297378540039	14.30824089050293
1	41.4164719581604	pulse	1	t						76.22145581245422	
1	43.01658082008362	pulse	1	t						77.82156467437744	
1	44.61652684211731	pulse	1	t						79.42151069641113	
1	46.21658992767334	pulse	1	t						81.02157378196716	
1	47.816558837890625	pulse	1	t						82.62154269218445	
1	49.416532039642334	pulse	1	t						84.22151589393616	
1	51.016592025756836	pulse	1	t						85.82157588005066	
1	52.61648201942444	pulse	1	t						87.42146587371826	
2	54.13299489021301	fix_pre	0		11	0.0	2.5	/experiments/AOT/AOT_stimuli/rescaled_final/1363_rv.mp4	0.0	88.93797874450684	0.09170198440551758
2	54.21655583381653	pulse	0	t		0.0	2.5	/experiments/AOT/AOT_stimuli/rescaled_final/1363_rv.mp4	0.0	89.02153968811035	
2	54.22469687461853	movie	1		241	0.0	2.5	/experiments/AOT/AOT_stimuli/rescaled_final/1363_rv.mp4	0.0	89.02968072891235	2.5083420276641846
2	55.81623101234436	pulse	1	t		0.0	2.5	/experiments/AOT/AOT_stimuli/rescaled_final/1363_rv.mp4	0.0	90.62121486663818	
2	56.733038902282715	fix_post	2		12	0.0	2.5	/experiments/AOT/AOT_stimuli/rescaled_final/1363_rv.mp4	0.0	91.53802275657654	0.10001897811889648
3	56.83305788040161	fix_pre	0		120	1.0	2.5	/experiments/AOT/AOT_stimuli/rescaled_final/2109_rv.mp4	0.0	91.63804173469543	0.9999730587005615
3	57.416609048843384	pulse	0	t		1.0	2.5	/experiments/AOT/AOT_stimuli/rescaled_final/2109_rv.mp4	0.0	92.2215929031372	
3	57.83303093910217	movie	1		243	1.0	2.5	/experiments/AOT/AOT_stimuli/rescaled_final/2109_rv.mp4	0.0	92.638014793396	2.4995219707489014
3	59.0165638923645	pulse	1	t		1.0	2.5	/experiments/AOT/AOT_stimuli/rescaled_final/2109_rv.mp4	0.0	93.82154774665833	
3	60.332552909851074	fix_post	2		12	1.0	2.5	/experiments/AOT/AOT_stimuli/rescaled_final/2109_rv.mp4	0.0	95.1375367641449	0.10042595863342285
4	60.4329788684845	fix_pre	0		120	2.0	2.5	/experiments/AOT/AOT_stimuli/rescaled_final/0664_fw.mp4	0.0	95.23796272277832	0.9995701313018799
4	60.616580963134766	pulse	0	t		2.0	2.5	/experiments/AOT/AOT_stimuli/rescaled_final/0664_fw.mp4	0.0	95.42156481742859	
4	61.43254899978638	movie	1		243	2.0	2.5	/experiments/AOT/AOT_stimuli/rescaled_final/0664_fw.mp4	0.0	96.2375328540802	2.5000088214874268
4	62.21653699874878	pulse	1	t		2.0	2.5	/experiments/AOT/AOT_stimuli/rescaled_final/0664_fw.mp4	0.0	97.0215208530426	
4	63.815096855163574	pulse	1	t		2.0	2.5	/experiments/AOT/AOT_stimuli/rescaled_final/0664_fw.mp4	0.0	98.6200807094574	
4	63.932557821273804	fix_post	2		12	2.0	2.5	/experiments/AOT/AOT_stimuli/rescaled_final/0664_fw.mp4	0.0	98.73754167556763	0.1006162166595459
5	64.03317403793335	fix_pre	0		120	3.0	2.5	/experiments/AOT/AOT_stimuli/rescaled_final/0298_rv.mp4	0.0	98.83815789222717	0.9998519420623779
5	65.03302597999573	movie	1		242	3.0	2.5	/experiments/AOT/AOT_stimuli/rescaled_final/0298_rv.mp4	0.0	99.83800983428955	2.499966859817505
5	65.41622400283813	pulse	1	t		3.0	2.5	/experiments/AOT/AOT_stimuli/rescaled_final/0298_rv.mp4	0.0	100.22120785713196	
5	67.01656699180603	pulse	1	t		3.0	2.5	/experiments/AOT/AOT_stimuli/rescaled_final/0298_rv.mp4	0.0	101.82155084609985	
5	67.53299283981323	fix_post	2		12	3.0	2.5	/experiments/AOT/AOT_stimuli/rescaled_final/0298_rv.mp4	0.0	102.33797669410706	0.1000370979309082
6	67.63302993774414	fix_pre	0		119	4.0	2.5	/experiments/AOT/AOT_stimuli/rescaled_final/0912_rv.mp4	0.0	102.43801379203796	0.9916141033172607
6	68.61649084091187	pulse	0	t		4.0	2.5	/experiments/AOT/AOT_stimuli/rescaled_final/0912_rv.mp4	0.0	103.42147469520569	
6	68.6246440410614	movie	1		245	4.0	2.5	/experiments/AOT/AOT_stimuli/rescaled_final/0912_rv.mp4	0.0	103.42962789535522	2.507887840270996
6	70.21624898910522	pulse	1	t		4.0	2.5	/experiments/AOT/AOT_stimuli/rescaled_final/0912_rv.mp4	0.0	105.02123284339905	
6	71.1325318813324	fix_post	2		12	4.0	2.5	/experiments/AOT/AOT_stimuli/rescaled_final/0912_rv.mp4	0.0	105.93751573562622	0.10005497932434082
7	71.23258686065674	fix_pre	0		120	5.0	2.5	blank	1.0	106.03757071495056	1.0004010200500488
7	71.81646299362183	pulse	0	t		5.0	2.5	blank	1.0	106.62144684791565	
7	72.23298788070679	movie	1		300	5.0	2.5	blank	1.0	107.03797173500061	2.5000619888305664
7	73.41645503044128	pulse	1	t		5.0	2.5	blank	1.0	108.22143888473511	
7	74.73304986953735	fix_post	2		12	5.0	2.5	blank	1.0	109.53803372383118	0.09989094734191895
8	74.83294081687927	fix_pre	0		120	6.0	2.5	/experiments/AOT/AOT_stimuli/rescaled_final/1673_rv.mp4	0.0	109.6379246711731	0.9995450973510742
8	75.01653385162354	pulse	0	t		6.0	2.5	/experiments/AOT/AOT_stimuli/rescaled_final/1673_rv.mp4	0.0	109.82151770591736	
8	75.83248591423035	movie	1		243	6.0	2.5	/experiments/AOT/AOT_stimuli/rescaled_final/1673_rv.mp4	0.0	110.63746976852417	2.5002601146698
8	76.61603784561157	pulse	1	t		6.0	2.5	/experiments/AOT/AOT_stimuli/rescaled_final/1673_rv.mp4	0.0	111.4210216999054	
8	78.22489881515503	pulse	1	t		6.0	2.5	/experiments/AOT/AOT_stimuli/rescaled_final/1673_rv.mp4	0.0	113.02988266944885	
8	78.33274602890015	fix_post	2		12	6.0	2.5	/experiments/AOT/AOT_stimuli/rescaled_final/1673_rv.mp4	0.0	113.13772988319397	0.0999758243560791
9	78.43272185325623	fix_pre	0		120	7.0	2.5	/experiments/AOT/AOT_stimuli/rescaled_final/2016_rv.mp4	0.0	113.23770570755005	1.000230073928833
9	79.43295192718506	movie	1		242	7.0	2.5	/experiments/AOT/AOT_stimuli/rescaled_final/2016_rv.mp4	0.0	114.23793578147888	2.4994499683380127
9	79.8162899017334	pulse	1	t		7.0	2.5	/experiments/AOT/AOT_stimuli/rescaled_final/2016_rv.mp4	0.0	114.62127375602722	
9	81.41637897491455	pulse	1	t		7.0	2.5	/experiments/AOT/AOT_stimuli/rescaled_final/2016_rv.mp4	0.0	116.22136282920837	
9	81.93240189552307	fix_post	2		12	7.0	2.5	/experiments/AOT/AOT_stimuli/rescaled_final/2016_rv.mp4	0.0	116.7373857498169	0.10060405731201172
10	82.03300595283508	fix_pre	0		119	8.0	2.5	/experiments/AOT/AOT_stimuli/rescaled_final/1533_rv.mp4	0.0	116.8379898071289	0.9915919303894043
10	83.01640892028809	pulse	0	t		8.0	2.5	/experiments/AOT/AOT_stimuli/rescaled_final/1533_rv.mp4	0.0	117.82139277458191	
10	83.02459788322449	movie	1		245	8.0	2.5	/experiments/AOT/AOT_stimuli/rescaled_final/1533_rv.mp4	0.0	117.82958173751831	2.5082321166992188
10	84.61570191383362	pulse	1	t		8.0	2.5	/experiments/AOT/AOT_stimuli/rescaled_final/1533_rv.mp4	0.0	119.42068576812744	
10	85.5328299999237	fix_post	2		12	8.0	2.5	/experiments/AOT/AOT_stimuli/rescaled_final/1533_rv.mp4	0.0	120.33781385421753	0.09998297691345215
11	85.63281297683716	fix_pre	0		120	9.0	2.5	/experiments/AOT/AOT_stimuli/rescaled_final/2090_rv.mp4	0.0	120.43779683113098	1.0000710487365723
11	86.21628999710083	pulse	0	t		9.0	2.5	/experiments/AOT/AOT_stimuli/rescaled_final/2090_rv.mp4	0.0	121.02127385139465	
11	86.63288402557373	movie	1		247	9.0	2.5	/experiments/AOT/AOT_stimuli/rescaled_final/2090_rv.mp4	0.0	121.43786787986755	2.49992299079895
11	87.8163709640503	pulse	1	t		9.0	2.5	/experiments/AOT/AOT_stimuli/rescaled_final/2090_rv.mp4	0.0	122.62135481834412	
11	89.13280701637268	fix_post	2		12	9.0	2.5	/experiments/AOT/AOT_stimuli/rescaled_final/2090_rv.mp4	0.0	123.9377908706665	0.1000368595123291
12	89.23284387588501	fix_pre	0		120	10.0	2.5	/experiments/AOT/AOT_stimuli/rescaled_final/1611_rv.mp4	0.0	124.03782773017883	0.9999849796295166
12	89.41634488105774	pulse	0	t		10.0	2.5	/experiments/AOT/AOT_stimuli/rescaled_final/1611_rv.mp4	0.0	124.22132873535156	
12	90.23282885551453	movie	1		245	10.0	2.5	/experiments/AOT/AOT_stimuli/rescaled_final/1611_rv.mp4	0.0	125.03781270980835	2.50006103515625
12	91.016273021698	pulse	1	t		10.0	2.5	/experiments/AOT/AOT_stimuli/rescaled_final/1611_rv.mp4	0.0	125.82125687599182	
12	92.61585402488708	pulse	1	t		10.0	2.5	/experiments/AOT/AOT_stimuli/rescaled_final/1611_rv.mp4	0.0	127.42083787918091	
12	92.73288989067078	fix_post	2		12	10.0	2.5	/experiments/AOT/AOT_stimuli/rescaled_final/1611_rv.mp4	0.0	127.5378737449646	0.09996414184570312
13	92.83285403251648	fix_pre	0		120	11.0	2.5	/experiments/AOT/AOT_stimuli/rescaled_final/1088_fw.mp4	0.0	127.6378378868103	0.9999678134918213
13	93.8328218460083	movie	1		246	11.0	2.5	/experiments/AOT/AOT_stimuli/rescaled_final/1088_fw.mp4	0.0	128.63780570030212	2.499994993209839
13	94.21610593795776	pulse	1	t		11.0	2.5	/experiments/AOT/AOT_stimuli/rescaled_final/1088_fw.mp4	0.0	129.0210897922516	
13	95.81623888015747	pulse	1	t		11.0	2.5	/experiments/AOT/AOT_stimuli/rescaled_final/1088_fw.mp4	0.0	130.6212227344513	
13	96.33281683921814	fix_post	2		12	11.0	2.5	/experiments/AOT/AOT_stimuli/rescaled_final/1088_fw.mp4	0.0	131.13780069351196	0.0996711254119873
14	96.43248796463013	fix_pre	0		119	12.0	2.5	/experiments/AOT/AOT_stimuli/rescaled_final/1247_rv.mp4	0.0	131.23747181892395	0.991966962814331
14	97.4163248538971	pulse	0	t		12.0	2.5	/experiments/AOT/AOT_stimuli/rescaled_final/1247_rv.mp4	0.0	132.22130870819092	
14	97.42445492744446	movie	1		243	12.0	2.5	/experiments/AOT/AOT_stimuli/rescaled_final/1247_rv.mp4	0.0	132.22943878173828	2.507925033569336
14	99.01579785346985	pulse	1	t		12.0	2.5	/experiments/AOT/AOT_stimuli/rescaled_final/1247_rv.mp4	0.0	133.82078170776367	
14	99.9323799610138	fix_post	2		12	12.0	2.5	/experiments/AOT/AOT_stimuli/rescaled_final/1247_rv.mp4	0.0	134.73736381530762	0.10035204887390137
15	100.0327320098877	fix_pre	0		120	13.0	2.5	blank	1.0	134.83771586418152	1.000025987625122
15	100.61636185646057	pulse	0	t		13.0	2.5	blank	1.0	135.4213457107544	
15	101.03275799751282	movie	1		300	13.0	2.5	blank	1.0	135.83774185180664	2.4999818801879883
15	102.21633195877075	pulse	1	t		13.0	2.5	blank	1.0	137.02131581306458	
15	103.5327398777008	fix_post	2		12	13.0	2.5	blank	1.0	138.33772373199463	0.10003113746643066
16	103.63277101516724	fix_pre	0		120	14.0	2.5	/experiments/AOT/AOT_stimuli/rescaled_final/0343_fw.mp4	0.0	138.43775486946106	0.9999969005584717
16	103.81628584861755	pulse	0	t		14.0	2.5	/experiments/AOT/AOT_stimuli/rescaled_final/0343_fw.mp4	0.0	138.62126970291138	
16	104.63276791572571	movie	1		243	14.0	2.5	/experiments/AOT/AOT_stimuli/rescaled_final/0343_fw.mp4	0.0	139.43775177001953	2.4997050762176514
16	105.41621899604797	pulse	1	t		14.0	2.5	/experiments/AOT/AOT_stimuli/rescaled_final/0343_fw.mp4	0.0	140.2212028503418	
16	107.02472186088562	pulse	1	t		14.0	2.5	/experiments/AOT/AOT_stimuli/rescaled_final/0343_fw.mp4	0.0	141.82970571517944	
16	107.13247299194336	fix_post	2		12	14.0	2.5	/experiments/AOT/AOT_stimuli/rescaled_final/0343_fw.mp4	0.0	141.93745684623718	0.10025501251220703
17	107.23272800445557	fix_pre	0		120	15.0	2.5	/experiments/AOT/AOT_stimuli/rescaled_final/1247_fw.mp4	0.0	142.0377118587494	0.999985933303833
17	108.2327139377594	movie	1		243	15.0	2.5	/experiments/AOT/AOT_stimuli/rescaled_final/1247_fw.mp4	0.0	143.03769779205322	2.5000429153442383
17	108.61656498908997	pulse	1	t		15.0	2.5	/experiments/AOT/AOT_stimuli/rescaled_final/1247_fw.mp4	0.0	143.4215488433838	
17	110.21631097793579	pulse	1	t		15.0	2.5	/experiments/AOT/AOT_stimuli/rescaled_final/1247_fw.mp4	0.0	145.02129483222961	
17	110.73275685310364	fix_post	2		12	15.0	2.5	/experiments/AOT/AOT_stimuli/rescaled_final/1247_fw.mp4	0.0	145.53774070739746	0.09994006156921387
18	110.83269691467285	fix_pre	0		119	16.0	2.5	/experiments/AOT/AOT_stimuli/rescaled_final/1072_fw.mp4	0.0	145.63768076896667	0.9917089939117432
18	111.81627583503723	pulse	0	t		16.0	2.5	/experiments/AOT/AOT_stimuli/rescaled_final/1072_fw.mp4	0.0	146.62125968933105	
18	111.8244059085846	movie	1		243	16.0	2.5	/experiments/AOT/AOT_stimuli/rescaled_final/1072_fw.mp4	0.0	146.62938976287842	2.5079140663146973
18	113.41608500480652	pulse	1	t		16.0	2.5	/experiments/AOT/AOT_stimuli/rescaled_final/1072_fw.mp4	0.0	148.22106885910034	
18	114.33231997489929	fix_post	2		12	16.0	2.5	/experiments/AOT/AOT_stimuli/rescaled_final/1072_fw.mp4	0.0	149.13730382919312	0.09998202323913574
19	114.43230199813843	fix_pre	0		120	17.0	2.5	/experiments/AOT/AOT_stimuli/rescaled_final/1184_rv.mp4	0.0	149.23728585243225	1.000459909439087
19	115.0162398815155	pulse	0	t		17.0	2.5	/experiments/AOT/AOT_stimuli/rescaled_final/1184_rv.mp4	0.0	149.82122373580933	
19	115.43276190757751	movie	1		245	17.0	2.5	/experiments/AOT/AOT_stimuli/rescaled_final/1184_rv.mp4	0.0	150.23774576187134	2.499927043914795
19	116.61630082130432	pulse	1	t		17.0	2.5	/experiments/AOT/AOT_stimuli/rescaled_final/1184_rv.mp4	0.0	151.42128467559814	
19	117.93268895149231	fix_post	2		12	17.0	2.5	/experiments/AOT/AOT_stimuli/rescaled_final/1184_rv.mp4	0.0	152.73767280578613	0.10004305839538574
20	118.0327320098877	fix_pre	0		120	18.0	2.5	/experiments/AOT/AOT_stimuli/rescaled_final/1585_fw.mp4	0.0	152.83771586418152	0.9999809265136719
20	118.21616291999817	pulse	0	t		18.0	2.5	/experiments/AOT/AOT_stimuli/rescaled_final/1585_fw.mp4	0.0	153.021146774292	
20	119.03271293640137	movie	1		245	18.0	2.5	/experiments/AOT/AOT_stimuli/rescaled_final/1585_fw.mp4	0.0	153.8376967906952	2.500009059906006
20	119.81617498397827	pulse	1	t		18.0	2.5	/experiments/AOT/AOT_stimuli/rescaled_final/1585_fw.mp4	0.0	154.6211588382721	
20	121.42465090751648	pulse	1	t		18.0	2.5	/experiments/AOT/AOT_stimuli/rescaled_final/1585_fw.mp4	0.0	156.2296347618103	
20	121.53272199630737	fix_post	2		12	18.0	2.5	/experiments/AOT/AOT_stimuli/rescaled_final/1585_fw.mp4	0.0	156.3377058506012	0.09962201118469238
21	121.63234400749207	fix_pre	0		120	19.0	2.5	/experiments/AOT/AOT_stimuli/rescaled_final/1603_fw.mp4	0.0	156.4373278617859	1.0004308223724365
21	122.6327748298645	movie	1		243	19.0	2.5	/experiments/AOT/AOT_stimuli/rescaled_final/1603_fw.mp4	0.0	157.43775868415833	2.4999701976776123
21	123.01615595817566	pulse	1	t		19.0	2.5	/experiments/AOT/AOT_stimuli/rescaled_final/1603_fw.mp4	0.0	157.82113981246948	
21	124.61615204811096	pulse	1	t		19.0	2.5	/experiments/AOT/AOT_stimuli/rescaled_final/1603_fw.mp4	0.0	159.42113590240479	
21	125.13274502754211	fix_post	2		12	19.0	2.5	/experiments/AOT/AOT_stimuli/rescaled_final/1603_fw.mp4	0.0	159.93772888183594	0.09992480278015137
22	125.23266983032227	fix_pre	0		119	20.0	2.5	/experiments/AOT/AOT_stimuli/rescaled_final/0130_fw.mp4	0.0	160.0376536846161	0.9916110038757324
22	126.21621990203857	pulse	0	t		20.0	2.5	/experiments/AOT/AOT_stimuli/rescaled_final/0130_fw.mp4	0.0	161.0212037563324	
22	126.224280834198	movie	1		243	20.0	2.5	/experiments/AOT/AOT_stimuli/rescaled_final/0130_fw.mp4	0.0	161.02926468849182	2.508385181427002
22	127.8180558681488	pulse	1	t		20.0	2.5	/experiments/AOT/AOT_stimuli/rescaled_final/0130_fw.mp4	0.0	162.62303972244263	
22	128.732666015625	fix_post	2		12	20.0	2.5	/experiments/AOT/AOT_stimuli/rescaled_final/0130_fw.mp4	0.0	163.53764986991882	0.10001683235168457
23	128.83268284797668	fix_pre	0		120	21.0	2.5	blank	1.0	163.6376667022705	0.9999330043792725
23	129.41623187065125	pulse	0	t		21.0	2.5	blank	1.0	164.22121572494507	
23	129.83261585235596	movie	1		300	21.0	2.5	blank	1.0	164.63759970664978	2.500092029571533
23	131.0161919593811	pulse	1	t		21.0	2.5	blank	1.0	165.82117581367493	
23	132.3327078819275	fix_post	2		12	21.0	2.5	blank	1.0	167.1376917362213	0.09951901435852051
24	132.432226896286	fix_pre	0		120	22.0	2.5	/experiments/AOT/AOT_stimuli/rescaled_final/0224_fw.mp4	0.0	167.23721075057983	1.0000929832458496
24	132.61572194099426	pulse	0	t		22.0	2.5	/experiments/AOT/AOT_stimuli/rescaled_final/0224_fw.mp4	0.0	167.4207057952881	
24	133.43231987953186	movie	1		245	22.0	2.5	/experiments/AOT/AOT_stimuli/rescaled_final/0224_fw.mp4	0.0	168.23730373382568	2.4999189376831055
24	134.21650385856628	pulse	1	t		22.0	2.5	/experiments/AOT/AOT_stimuli/rescaled_final/0224_fw.mp4	0.0	169.0214877128601	
24	135.81496000289917	pulse	1	t		22.0	2.5	/experiments/AOT/AOT_stimuli/rescaled_final/0224_fw.mp4	0.0	170.619943857193	
24	135.93223881721497	fix_post	2		12	22.0	2.5	/experiments/AOT/AOT_stimuli/rescaled_final/0224_fw.mp4	0.0	170.7372226715088	0.1000211238861084
25	136.03225994110107	fix_pre	0		120	23.0	2.5	/experiments/AOT/AOT_stimuli/rescaled_final/1406_rv.mp4	0.0	170.8372437953949	1.0003600120544434
25	137.03261995315552	movie	1		244	23.0	2.5	/experiments/AOT/AOT_stimuli/rescaled_final/1406_rv.mp4	0.0	171.83760380744934	2.4999780654907227
25	137.4157989025116	pulse	1	t		23.0	2.5	/experiments/AOT/AOT_stimuli/rescaled_final/1406_rv.mp4	0.0	172.22078275680542	
25	139.01616501808167	pulse	1	t		23.0	2.5	/experiments/AOT/AOT_stimuli/rescaled_final/1406_rv.mp4	0.0	173.8211488723755	
25	139.53259801864624	fix_post	2		12	23.0	2.5	/experiments/AOT/AOT_stimuli/rescaled_final/1406_rv.mp4	0.0	174.33758187294006	0.10002493858337402
26	139.63262295722961	fix_pre	0		119	24.0	2.5	/experiments/AOT/AOT_stimuli/rescaled_final/2175_rv.mp4	0.0	174.43760681152344	0.9917120933532715
26	140.61603498458862	pulse	0	t		24.0	2.5	/experiments/AOT/AOT_stimuli/rescaled_final/2175_rv.mp4	0.0	175.42101883888245	
26	140.62433505058289	movie	1		246	24.0	2.5	/experiments/AOT/AOT_stimuli/rescaled_final/2175_rv.mp4	0.0	175.4293189048767	2.5078327655792236
26	142.21590304374695	pulse	1	t		24.0	2.5	/experiments/AOT/AOT_stimuli/rescaled_final/2175_rv.mp4	0.0	177.02088689804077	
26	143.1321678161621	fix_post	2		12	24.0	2.5	/experiments/AOT/AOT_stimuli/rescaled_final/2175_rv.mp4	0.0	177.93715167045593	0.10043120384216309
27	143.23259902000427	fix_pre	0		120	25.0	2.5	/experiments/AOT/AOT_stimuli/rescaled_final/1258_rv.mp4	0.0	178.0375828742981	0.9995808601379395
27	143.81600904464722	pulse	0	t		25.0	2.5	/experiments/AOT/AOT_stimuli/rescaled_final/1258_rv.mp4	0.0	178.62099289894104	
27	144.2321798801422	movie	1		244	25.0	2.5	/experiments/AOT/AOT_stimuli/rescaled_final/1258_rv.mp4	0.0	179.03716373443604	2.5004160404205322
27	145.41606283187866	pulse	1	t		25.0	2.5	/experiments/AOT/AOT_stimuli/rescaled_final/1258_rv.mp4	0.0	180.22104668617249	
27	146.73259592056274	fix_post	2		12	25.0	2.5	/experiments/AOT/AOT_stimuli/rescaled_final/1258_rv.mp4	0.0	181.53757977485657	0.1000669002532959
28	146.83266282081604	fix_pre	0		120	26.0	2.5	/experiments/AOT/AOT_stimuli/rescaled_final/1281_rv.mp4	0.0	181.63764667510986	0.9998960494995117
28	147.01604890823364	pulse	0	t		26.0	2.5	/experiments/AOT/AOT_stimuli/rescaled_final/1281_rv.mp4	0.0	181.82103276252747	
28	147.83255887031555	movie	1		244	26.0	2.5	/experiments/AOT/AOT_stimuli/rescaled_final/1281_rv.mp4	0.0	182.63754272460938	2.499537944793701
28	148.61603593826294	pulse	1	t		26.0	2.5	/experiments/AOT/AOT_stimuli/rescaled_final/1281_rv.mp4	0.0	183.42101979255676	
28	150.2149088382721	pulse	1	t		26.0	2.5	/experiments/AOT/AOT_stimuli/rescaled_final/1281_rv.mp4	0.0	185.01989269256592	
28	150.33209681510925	fix_post	2		12	26.0	2.5	/experiments/AOT/AOT_stimuli/rescaled_final/1281_rv.mp4	0.0	185.13708066940308	0.10046100616455078
29	150.4325578212738	fix_pre	0		120	27.0	2.5	blank	1.0	185.23754167556763	0.9999120235443115
29	151.43246984481812	movie	1		300	27.0	2.5	blank	1.0	186.23745369911194	2.4996681213378906
29	151.81605982780457	pulse	1	t		27.0	2.5	blank	1.0	186.6210436820984	
29	153.41605591773987	pulse	1	t		27.0	2.5	blank	1.0	188.2210397720337	
29	153.932137966156	fix_post	2		12	27.0	2.5	blank	1.0	188.73712182044983	0.10033988952636719
30	154.03247785568237	fix_pre	0		119	28.0	2.5	/experiments/AOT/AOT_stimuli/rescaled_final/0423_rv.mp4	0.0	188.8374617099762	0.9916651248931885
30	155.01608896255493	pulse	0	t		28.0	2.5	/experiments/AOT/AOT_stimuli/rescaled_final/0423_rv.mp4	0.0	189.82107281684875	
30	155.02414298057556	movie	1		247	28.0	2.5	/experiments/AOT/AOT_stimuli/rescaled_final/0423_rv.mp4	0.0	189.82912683486938	2.5079569816589355
30	156.61594581604004	pulse	1	t		28.0	2.5	/experiments/AOT/AOT_stimuli/rescaled_final/0423_rv.mp4	0.0	191.42092967033386	
30	157.5320999622345	fix_post	2		12	28.0	2.5	/experiments/AOT/AOT_stimuli/rescaled_final/0423_rv.mp4	0.0	192.33708381652832	0.10041594505310059
31	157.6325159072876	fix_pre	0		120	29.0	2.5	/experiments/AOT/AOT_stimuli/rescaled_final/1088_rv.mp4	0.0	192.43749976158142	0.9999279975891113
31	158.2160518169403	pulse	0	t		29.0	2.5	/experiments/AOT/AOT_stimuli/rescaled_final/1088_rv.mp4	0.0	193.02103567123413	
31	158.6324439048767	movie	1		246	29.0	2.5	/experiments/AOT/AOT_stimuli/rescaled_final/1088_rv.mp4	0.0	193.43742775917053	2.5000901222229004
31	159.81609797477722	pulse	1	t		29.0	2.5	/experiments/AOT/AOT_stimuli/rescaled_final/1088_rv.mp4	0.0	194.62108182907104	
31	161.1325340270996	fix_post	2		12	29.0	2.5	/experiments/AOT/AOT_stimuli/rescaled_final/1088_rv.mp4	0.0	195.93751788139343	0.09993195533752441
32	161.23246598243713	fix_pre	0		120	30.0	2.5	/experiments/AOT/AOT_stimuli/rescaled_final/0429_rv.mp4	0.0	196.03744983673096	1.000087022781372
32	161.41598296165466	pulse	0	t		30.0	2.5	/experiments/AOT/AOT_stimuli/rescaled_final/0429_rv.mp4	0.0	196.2209668159485	
32	162.2325530052185	movie	1		245	30.0	2.5	/experiments/AOT/AOT_stimuli/rescaled_final/0429_rv.mp4	0.0	197.03753685951233	2.49969482421875
32	163.0159878730774	pulse	1	t		30.0	2.5	/experiments/AOT/AOT_stimuli/rescaled_final/0429_rv.mp4	0.0	197.82097172737122	
32	164.61595392227173	pulse	1	t		30.0	2.5	/experiments/AOT/AOT_stimuli/rescaled_final/0429_rv.mp4	0.0	199.42093777656555	
32	164.73224782943726	fix_post	2		12	30.0	2.5	/experiments/AOT/AOT_stimuli/rescaled_final/0429_rv.mp4	0.0	199.53723168373108	0.10026121139526367
33	164.83250904083252	fix_pre	0		120	31.0	2.5	/experiments/AOT/AOT_stimuli/rescaled_final/0411_fw.mp4	0.0	199.63749289512634	0.9999759197235107
33	165.83248496055603	movie	1		246	31.0	2.5	/experiments/AOT/AOT_stimuli/rescaled_final/0411_fw.mp4	0.0	200.63746881484985	2.4995639324188232
33	166.2168309688568	pulse	1	t		31.0	2.5	/experiments/AOT/AOT_stimuli/rescaled_final/0411_fw.mp4	0.0	201.02181482315063	
33	167.81596493721008	pulse	1	t		31.0	2.5	/experiments/AOT/AOT_stimuli/rescaled_final/0411_fw.mp4	0.0	202.6209487915039	
33	168.33204889297485	fix_post	2		12	31.0	2.5	/experiments/AOT/AOT_stimuli/rescaled_final/0411_fw.mp4	0.0	203.13703274726868	0.10047292709350586
34	168.43252182006836	fix_pre	0		119	32.0	2.5	/experiments/AOT/AOT_stimuli/rescaled_final/1740_fw.mp4	0.0	203.23750567436218	0.9915750026702881
34	169.41600584983826	pulse	0	t		32.0	2.5	/experiments/AOT/AOT_stimuli/rescaled_final/1740_fw.mp4	0.0	204.22098970413208	
34	169.42409682273865	movie	1		244	32.0	2.5	/experiments/AOT/AOT_stimuli/rescaled_final/1740_fw.mp4	0.0	204.22908067703247	2.5079212188720703
34	171.01563382148743	pulse	1	t		32.0	2.5	/experiments/AOT/AOT_stimuli/rescaled_final/1740_fw.mp4	0.0	205.82061767578125	
34	171.93201804161072	fix_post	2		12	32.0	2.5	/experiments/AOT/AOT_stimuli/rescaled_final/1740_fw.mp4	0.0	206.73700189590454	0.10045981407165527
35	172.03247785568237	fix_pre	0		120	33.0	2.5	/experiments/AOT/AOT_stimuli/rescaled_final/2105_rv.mp4	0.0	206.8374617099762	0.999967098236084
35	172.61612391471863	pulse	0	t		33.0	2.5	/experiments/AOT/AOT_stimuli/rescaled_final/2105_rv.mp4	0.0	207.42110776901245	
35	173.03244495391846	movie	1		243	33.0	2.5	/experiments/AOT/AOT_stimuli/rescaled_final/2105_rv.mp4	0.0	207.83742880821228	2.4999709129333496
35	174.2160289287567	pulse	1	t		33.0	2.5	/experiments/AOT/AOT_stimuli/rescaled_final/2105_rv.mp4	0.0	209.02101278305054	
35	175.5324158668518	fix_post	2		12	33.0	2.5	/experiments/AOT/AOT_stimuli/rescaled_final/2105_rv.mp4	0.0	210.33739972114563	0.1000511646270752
36	175.63246703147888	fix_pre	0		120	34.0	2.5	blank	1.0	210.4374508857727	1.000044822692871
36	175.8159248828888	pulse	0	t		34.0	2.5	blank	1.0	210.62090873718262	
36	176.63251185417175	movie	1		300	34.0	2.5	blank	1.0	211.43749570846558	2.5000109672546387
36	177.41589283943176	pulse	1	t		34.0	2.5	blank	1.0	212.2208766937256	
36	179.01590299606323	pulse	1	t		34.0	2.5	blank	1.0	213.82088685035706	
36	179.1325228214264	fix_post	2		12	34.0	2.5	blank	1.0	213.93750667572021	0.09995722770690918
37	179.2324800491333	fix_pre	0		120	35.0	2.5	/experiments/AOT/AOT_stimuli/rescaled_final/0061_fw.mp4	0.0	214.03746390342712	0.999957799911499
37	180.2324378490448	movie	1		243	35.0	2.5	/experiments/AOT/AOT_stimuli/rescaled_final/0061_fw.mp4	0.0	215.03742170333862	2.4999911785125732
37	180.61566185951233	pulse	1	t		35.0	2.5	/experiments/AOT/AOT_stimuli/rescaled_final/0061_fw.mp4	0.0	215.42064571380615	
37	182.21593189239502	pulse	1	t		35.0	2.5	/experiments/AOT/AOT_stimuli/rescaled_final/0061_fw.mp4	0.0	217.02091574668884	
37	182.73242902755737	fix_post	2		12	35.0	2.5	/experiments/AOT/AOT_stimuli/rescaled_final/0061_fw.mp4	0.0	217.5374128818512	0.09953784942626953
38	182.83196687698364	fix_pre	0		119	36.0	2.5	/experiments/AOT/AOT_stimuli/rescaled_final/1917_rv.mp4	0.0	217.63695073127747	0.9920740127563477
38	183.8158679008484	pulse	0	t		36.0	2.5	/experiments/AOT/AOT_stimuli/rescaled_final/1917_rv.mp4	0.0	218.6208517551422	
38	183.82404088974	movie	1		246	36.0	2.5	/experiments/AOT/AOT_stimuli/rescaled_final/1917_rv.mp4	0.0	218.6290247440338	2.5080411434173584
38	185.41575694084167	pulse	1	t		36.0	2.5	/experiments/AOT/AOT_stimuli/rescaled_final/1917_rv.mp4	0.0	220.2207407951355	
38	186.33208203315735	fix_post	2		12	36.0	2.5	/experiments/AOT/AOT_stimuli/rescaled_final/1917_rv.mp4	0.0	221.13706588745117	0.10032987594604492
39	186.4324119091034	fix_pre	0		120	37.0	2.5	/experiments/AOT/AOT_stimuli/rescaled_final/1026_fw.mp4	0.0	221.23739576339722	0.9996600151062012
39	187.01592087745667	pulse	0	t		37.0	2.5	/experiments/AOT/AOT_stimuli/rescaled_final/1026_fw.mp4	0.0	221.8209047317505	
39	187.4320719242096	movie	1		247	37.0	2.5	/experiments/AOT/AOT_stimuli/rescaled_final/1026_fw.mp4	0.0	222.23705577850342	2.5004940032958984
39	188.61589884757996	pulse	1	t		37.0	2.5	/experiments/AOT/AOT_stimuli/rescaled_final/1026_fw.mp4	0.0	223.42088270187378	
39	189.9325659275055	fix_post	2		12	37.0	2.5	/experiments/AOT/AOT_stimuli/rescaled_final/1026_fw.mp4	0.0	224.73754978179932	0.10001111030578613
40	190.03257703781128	fix_pre	0		120	38.0	2.5	/experiments/AOT/AOT_stimuli/rescaled_final/1216_fw.mp4	0.0	224.8375608921051	0.9996778964996338
40	190.21560382843018	pulse	0	t		38.0	2.5	/experiments/AOT/AOT_stimuli/rescaled_final/1216_fw.mp4	0.0	225.020587682724	
40	191.0322549343109	movie	1		243	38.0	2.5	/experiments/AOT/AOT_stimuli/rescaled_final/1216_fw.mp4	0.0	225.83723878860474	2.4996840953826904
40	191.8159098625183	pulse	1	t		38.0	2.5	/experiments/AOT/AOT_stimuli/rescaled_final/1216_fw.mp4	0.0	226.62089371681213	
40	193.42425799369812	pulse	1	t		38.0	2.5	/experiments/AOT/AOT_stimuli/rescaled_final/1216_fw.mp4	0.0	228.22924184799194	
40	193.5319390296936	fix_post	2		12	38.0	2.5	/experiments/AOT/AOT_stimuli/rescaled_final/1216_fw.mp4	0.0	228.33692288398743	0.10038399696350098
41	193.6323230266571	fix_pre	0		120	39.0	2.5	/experiments/AOT/AOT_stimuli/rescaled_final/0590_rv.mp4	0.0	228.43730688095093	1.0000109672546387
41	194.63233399391174	movie	1		243	39.0	2.5	/experiments/AOT/AOT_stimuli/rescaled_final/0590_rv.mp4	0.0	229.43731784820557	2.4995429515838623
41	195.0151720046997	pulse	1	t		39.0	2.5	/experiments/AOT/AOT_stimuli/rescaled_final/0590_rv.mp4	0.0	229.82015585899353	
41	196.6158058643341	pulse	1	t		39.0	2.5	/experiments/AOT/AOT_stimuli/rescaled_final/0590_rv.mp4	0.0	231.42078971862793	
41	197.1318769454956	fix_post	2		12	39.0	2.5	/experiments/AOT/AOT_stimuli/rescaled_final/0590_rv.mp4	0.0	231.93686079978943	0.10044097900390625
42	197.2323179244995	fix_pre	0		119	40.0	2.5	/experiments/AOT/AOT_stimuli/rescaled_final/2122_rv.mp4	0.0	232.03730177879333	0.991710901260376
42	198.21578884124756	pulse	0	t		40.0	2.5	/experiments/AOT/AOT_stimuli/rescaled_final/2122_rv.mp4	0.0	233.02077269554138	
42	198.2240288257599	movie	1		244	40.0	2.5	/experiments/AOT/AOT_stimuli/rescaled_final/2122_rv.mp4	0.0	233.0290126800537	2.508355140686035
42	199.81601095199585	pulse	1	t		40.0	2.5	/experiments/AOT/AOT_stimuli/rescaled_final/2122_rv.mp4	0.0	234.62099480628967	
42	200.73238396644592	fix_post	2		12	40.0	2.5	/experiments/AOT/AOT_stimuli/rescaled_final/2122_rv.mp4	0.0	235.53736782073975	0.09991288185119629
43	200.83229684829712	fix_pre	0		120	41.0	2.5	/experiments/AOT/AOT_stimuli/rescaled_final/0412_rv.mp4	0.0	235.63728070259094	1.0000360012054443
43	201.41578793525696	pulse	0	t		41.0	2.5	/experiments/AOT/AOT_stimuli/rescaled_final/0412_rv.mp4	0.0	236.22077178955078	
43	201.83233284950256	movie	1		247	41.0	2.5	/experiments/AOT/AOT_stimuli/rescaled_final/0412_rv.mp4	0.0	236.6373167037964	2.4999260902404785
43	203.01583194732666	pulse	1	t		41.0	2.5	/experiments/AOT/AOT_stimuli/rescaled_final/0412_rv.mp4	0.0	237.82081580162048	
43	204.33225893974304	fix_post	2		12	41.0	2.5	/experiments/AOT/AOT_stimuli/rescaled_final/0412_rv.mp4	0.0	239.13724279403687	0.09969592094421387
44	204.43195486068726	fix_pre	0		120	42.0	2.5	blank	1.0	239.23693871498108	1.0003390312194824
44	204.61578392982483	pulse	0	t		42.0	2.5	blank	1.0	239.42076778411865	
44	205.43229389190674	movie	1		300	42.0	2.5	blank	1.0	240.23727774620056	2.5
44	206.21591687202454	pulse	1	t		42.0	2.5	blank	1.0	241.02090072631836	
44	207.81580591201782	pulse	1	t		42.0	2.5	blank	1.0	242.62078976631165	
44	207.93229389190674	fix_post	2		12	42.0	2.5	blank	1.0	242.73727774620056	0.09961795806884766
45	208.0319118499756	fix_pre	0		120	43.0	2.5	/experiments/AOT/AOT_stimuli/rescaled_final/1247_rv.mp4	0.0	242.8368957042694	0.9999241828918457
45	209.03183603286743	movie	1		243	43.0	2.5	/experiments/AOT/AOT_stimuli/rescaled_final/1247_rv.mp4	0.0	243.83681988716125	2.500443935394287
45	209.4155569076538	pulse	1	t		43.0	2.5	/experiments/AOT/AOT_stimuli/rescaled_final/1247_rv.mp4	0.0	244.22054076194763	
45	211.0157630443573	pulse	1	t		43.0	2.5	/experiments/AOT/AOT_stimuli/rescaled_final/1247_rv.mp4	0.0	245.82074689865112	
45	211.53227996826172	fix_post	2		12	43.0	2.5	/experiments/AOT/AOT_stimuli/rescaled_final/1247_rv.mp4	0.0	246.33726382255554	0.09992194175720215
46	211.63220191001892	fix_pre	0		119	44.0	2.5	/experiments/AOT/AOT_stimuli/rescaled_final/2098_fw.mp4	0.0	246.43718576431274	0.9916870594024658
46	212.61572003364563	pulse	0	t		44.0	2.5	/experiments/AOT/AOT_stimuli/rescaled_final/2098_fw.mp4	0.0	247.42070388793945	
46	212.6238889694214	movie	1		247	44.0	2.5	/experiments/AOT/AOT_stimuli/rescaled_final/2098_fw.mp4	0.0	247.4288728237152	2.5083789825439453
46	214.21542096138	pulse	1	t		44.0	2.5	/experiments/AOT/AOT_stimuli/rescaled_final/2098_fw.mp4	0.0	249.02040481567383	
46	215.13226795196533	fix_post	2		12	44.0	2.5	/experiments/AOT/AOT_stimuli/rescaled_final/2098_fw.mp4	0.0	249.93725180625916	0.10008001327514648
47	215.23234796524048	fix_pre	0		120	45.0	2.5	/experiments/AOT/AOT_stimuli/rescaled_final/0317_fw.mp4	0.0	250.0373318195343	0.9999139308929443
47	215.81578397750854	pulse	0	t		45.0	2.5	/experiments/AOT/AOT_stimuli/rescaled_final/0317_fw.mp4	0.0	250.62076783180237	
47	216.23226189613342	movie	1		244	45.0	2.5	/experiments/AOT/AOT_stimuli/rescaled_final/0317_fw.mp4	0.0	251.03724575042725	2.4999990463256836
47	217.41581988334656	pulse	1	t		45.0	2.5	/experiments/AOT/AOT_stimuli/rescaled_final/0317_fw.mp4	0.0	252.22080373764038	
47	218.7322609424591	fix_post	2		12	45.0	2.5	/experiments/AOT/AOT_stimuli/rescaled_final/0317_fw.mp4	0.0	253.53724479675293	0.09997797012329102
48	218.8322389125824	fix_pre	0		120	46.0	2.5	/experiments/AOT/AOT_stimuli/rescaled_final/0204_fw.mp4	0.0	253.63722276687622	0.9999830722808838
48	219.01577997207642	pulse	0	t		46.0	2.5	/experiments/AOT/AOT_stimuli/rescaled_final/0204_fw.mp4	0.0	253.82076382637024	
48	219.83222198486328	movie	1		243	46.0	2.5	/experiments/AOT/AOT_stimuli/rescaled_final/0204_fw.mp4	0.0	254.6372058391571	2.499547004699707
48	220.61577486991882	pulse	1	t		46.0	2.5	/experiments/AOT/AOT_stimuli/rescaled_final/0204_fw.mp4	0.0	255.42075872421265	
48	222.22414588928223	pulse	1	t		46.0	2.5	/experiments/AOT/AOT_stimuli/rescaled_final/0204_fw.mp4	0.0	257.02912974357605	
48	222.331768989563	fix_post	2		12	46.0	2.5	/experiments/AOT/AOT_stimuli/rescaled_final/0204_fw.mp4	0.0	257.1367528438568	0.10048198699951172
49	222.4322509765625	fix_pre	0		120	47.0	2.5	/experiments/AOT/AOT_stimuli/rescaled_final/0130_rv.mp4	0.0	257.2372348308563	1.0000360012054443
49	223.43228697776794	movie	1		244	47.0	2.5	/experiments/AOT/AOT_stimuli/rescaled_final/0130_rv.mp4	0.0	258.23727083206177	2.499850034713745
49	223.8152139186859	pulse	1	t		47.0	2.5	/experiments/AOT/AOT_stimuli/rescaled_final/0130_rv.mp4	0.0	258.62019777297974	
49	225.41576981544495	pulse	1	t		47.0	2.5	/experiments/AOT/AOT_stimuli/rescaled_final/0130_rv.mp4	0.0	260.22075366973877	
49	225.9321370124817	fix_post	2		12	47.0	2.5	/experiments/AOT/AOT_stimuli/rescaled_final/0130_rv.mp4	0.0	260.7371208667755	0.10004997253417969
50	226.03218698501587	fix_pre	0		119	48.0	2.5	blank	1.0	260.8371708393097	0.9917900562286377
50	227.0157299041748	pulse	0	t		48.0	2.5	blank	1.0	261.8207137584686	
50	227.0239770412445	movie	1		301	48.0	2.5	blank	1.0	261.82896089553833	2.508241891860962
50	228.6156919002533	pulse	1	t		48.0	2.5	blank	1.0	263.4206757545471	
50	229.53221893310547	fix_post	2		12	48.0	2.5	blank	1.0	264.3372027873993	0.09996199607849121
51	229.63218092918396	fix_pre	0		120	49.0	2.5	/experiments/AOT/AOT_stimuli/rescaled_final/1400_rv.mp4	0.0	264.4371647834778	0.9999759197235107
51	230.21562385559082	pulse	0	t		49.0	2.5	/experiments/AOT/AOT_stimuli/rescaled_final/1400_rv.mp4	0.0	265.02060770988464	
51	230.63215684890747	movie	1		243	49.0	2.5	/experiments/AOT/AOT_stimuli/rescaled_final/1400_rv.mp4	0.0	265.4371407032013	2.499559164047241
51	231.8157160282135	pulse	1	t		49.0	2.5	/experiments/AOT/AOT_stimuli/rescaled_final/1400_rv.mp4	0.0	266.6206998825073	
51	233.1317160129547	fix_post	2		12	49.0	2.5	/experiments/AOT/AOT_stimuli/rescaled_final/1400_rv.mp4	0.0	267.93669986724854	0.10039401054382324
52	233.23211002349854	fix_pre	0		120	50.0	2.5	/experiments/AOT/AOT_stimuli/rescaled_final/1998_fw.mp4	0.0	268.03709387779236	1.0001518726348877
52	233.41567397117615	pulse	0	t		50.0	2.5	/experiments/AOT/AOT_stimuli/rescaled_final/1998_fw.mp4	0.0	268.22065782546997	
52	234.23226189613342	movie	1		243	50.0	2.5	/experiments/AOT/AOT_stimuli/rescaled_final/1998_fw.mp4	0.0	269.03724575042725	2.4998531341552734
52	235.01565790176392	pulse	1	t		50.0	2.5	/experiments/AOT/AOT_stimuli/rescaled_final/1998_fw.mp4	0.0	269.82064175605774	
52	236.62404084205627	pulse	1	t		50.0	2.5	/experiments/AOT/AOT_stimuli/rescaled_final/1998_fw.mp4	0.0	271.4290246963501	
52	236.7321150302887	fix_post	2		12	50.0	2.5	/experiments/AOT/AOT_stimuli/rescaled_final/1998_fw.mp4	0.0	271.5370988845825	0.09997892379760742
53	236.8320939540863	fix_pre	0		120	51.0	2.5	/experiments/AOT/AOT_stimuli/rescaled_final/0926_rv.mp4	0.0	271.6370778083801	1.0000009536743164
53	237.83209490776062	movie	1		244	51.0	2.5	/experiments/AOT/AOT_stimuli/rescaled_final/0926_rv.mp4	0.0	272.63707876205444	2.499994993209839
53	238.21570491790771	pulse	1	t		51.0	2.5	/experiments/AOT/AOT_stimuli/rescaled_final/0926_rv.mp4	0.0	273.02068877220154	
53	239.81562685966492	pulse	1	t		51.0	2.5	/experiments/AOT/AOT_stimuli/rescaled_final/0926_rv.mp4	0.0	274.62061071395874	
53	240.33208990097046	fix_post	2		12	51.0	2.5	/experiments/AOT/AOT_stimuli/rescaled_final/0926_rv.mp4	0.0	275.1370737552643	0.09959292411804199
54	240.4316828250885	fix_pre	0		119	52.0	2.5	/experiments/AOT/AOT_stimuli/rescaled_final/1620_fw.mp4	0.0	275.2366666793823	0.992089033126831
54	241.41561198234558	pulse	0	t		52.0	2.5	/experiments/AOT/AOT_stimuli/rescaled_final/1620_fw.mp4	0.0	276.2205958366394	
54	241.42377185821533	movie	1		246	52.0	2.5	/experiments/AOT/AOT_stimuli/rescaled_final/1620_fw.mp4	0.0	276.22875571250916	2.508319139480591
54	243.02392983436584	pulse	1	t		52.0	2.5	/experiments/AOT/AOT_stimuli/rescaled_final/1620_fw.mp4	0.0	277.82891368865967	
54	243.93209099769592	fix_post	2		12	52.0	2.5	/experiments/AOT/AOT_stimuli/rescaled_final/1620_fw.mp4	0.0	278.73707485198975	0.10004186630249023
55	244.0321328639984	fix_pre	0		120	53.0	2.5	/experiments/AOT/AOT_stimuli/rescaled_final/1313_rv.mp4	0.0	278.83711671829224	0.9995851516723633
55	244.61519289016724	pulse	0	t		53.0	2.5	/experiments/AOT/AOT_stimuli/rescaled_final/1313_rv.mp4	0.0	279.42017674446106	
55	245.03171801567078	movie	1		244	53.0	2.5	/experiments/AOT/AOT_stimuli/rescaled_final/1313_rv.mp4	0.0	279.8367018699646	2.5000569820404053
55	246.21555089950562	pulse	1	t		53.0	2.5	/experiments/AOT/AOT_stimuli/rescaled_final/1313_rv.mp4	0.0	281.02053475379944	
55	247.53177499771118	fix_post	2		12	53.0	2.5	/experiments/AOT/AOT_stimuli/rescaled_final/1313_rv.mp4	0.0	282.336758852005	0.10037493705749512
56	247.63214993476868	fix_pre	0		120	54.0	2.5	/experiments/AOT/AOT_stimuli/rescaled_final/1898_rv.mp4	0.0	282.4371337890625	0.999640941619873
56	247.81558203697205	pulse	0	t		54.0	2.5	/experiments/AOT/AOT_stimuli/rescaled_final/1898_rv.mp4	0.0	282.62056589126587	
56	248.63179087638855	movie	1		246	54.0	2.5	/experiments/AOT/AOT_stimuli/rescaled_final/1898_rv.mp4	0.0	283.4367747306824	2.4999001026153564
56	249.4156060218811	pulse	1	t		54.0	2.5	/experiments/AOT/AOT_stimuli/rescaled_final/1898_rv.mp4	0.0	284.2205898761749	
56	251.0239520072937	pulse	1	t		54.0	2.5	/experiments/AOT/AOT_stimuli/rescaled_final/1898_rv.mp4	0.0	285.8289358615875	
56	251.1316909790039	fix_post	2		12	54.0	2.5	/experiments/AOT/AOT_stimuli/rescaled_final/1898_rv.mp4	0.0	285.93667483329773	0.10010504722595215
57	251.23179602622986	fix_pre	0		120	55.0	2.5	/experiments/AOT/AOT_stimuli/rescaled_final/1611_rv.mp4	0.0	286.0367798805237	1.000298023223877
57	252.23209404945374	movie	1		244	55.0	2.5	/experiments/AOT/AOT_stimuli/rescaled_final/1611_rv.mp4	0.0	287.03707790374756	2.499994993209839
57	252.624027967453	pulse	1	t		55.0	2.5	/experiments/AOT/AOT_stimuli/rescaled_final/1611_rv.mp4	0.0	287.4290118217468	
57	254.2154619693756	pulse	1	t		55.0	2.5	/experiments/AOT/AOT_stimuli/rescaled_final/1611_rv.mp4	0.0	289.02044582366943	
57	254.73208904266357	fix_post	2		12	55.0	2.5	/experiments/AOT/AOT_stimuli/rescaled_final/1611_rv.mp4	0.0	289.5370728969574	0.09990882873535156
58	254.83199787139893	fix_pre	0		119	56.0	2.5	blank	1.0	289.63698172569275	0.9917199611663818
58	255.81553602218628	pulse	0	t		56.0	2.5	blank	1.0	290.6205198764801	
58	255.8237178325653	movie	1		301	56.0	2.5	blank	1.0	290.62870168685913	2.5084280967712402
58	257.4154908657074	pulse	1	t		56.0	2.5	blank	1.0	292.2204747200012	
58	258.33214592933655	fix_post	2		12	56.0	2.5	blank	1.0	293.13712978363037	0.09952998161315918
59	258.4316759109497	fix_pre	0		120	57.0	2.5	/experiments/AOT/AOT_stimuli/rescaled_final/0842_fw.mp4	0.0	293.23665976524353	1.0003831386566162
59	259.01565384864807	pulse	0	t		57.0	2.5	/experiments/AOT/AOT_stimuli/rescaled_final/0842_fw.mp4	0.0	293.8206377029419	
59	259.4320590496063	movie	1		244	57.0	2.5	/experiments/AOT/AOT_stimuli/rescaled_final/0842_fw.mp4	0.0	294.23704290390015	2.4998908042907715
59	260.6155619621277	pulse	1	t		57.0	2.5	/experiments/AOT/AOT_stimuli/rescaled_final/0842_fw.mp4	0.0	295.4205458164215	
59	261.9319498538971	fix_post	2		12	57.0	2.5	/experiments/AOT/AOT_stimuli/rescaled_final/0842_fw.mp4	0.0	296.7369337081909	0.1000661849975586
60	262.03201603889465	fix_pre	0		120	58.0	2.5	/experiments/AOT/AOT_stimuli/rescaled_final/1611_fw.mp4	0.0	296.8369998931885	0.9999959468841553
60	262.21558594703674	pulse	0	t		58.0	2.5	/experiments/AOT/AOT_stimuli/rescaled_final/1611_fw.mp4	0.0	297.02056980133057	
60	263.0320119857788	movie	1		243	58.0	2.5	/experiments/AOT/AOT_stimuli/rescaled_final/1611_fw.mp4	0.0	297.83699584007263	2.5001139640808105
60	263.8155150413513	pulse	1	t		58.0	2.5	/experiments/AOT/AOT_stimuli/rescaled_final/1611_fw.mp4	0.0	298.62049889564514	
60	265.4238829612732	pulse	1	t		58.0	2.5	/experiments/AOT/AOT_stimuli/rescaled_final/1611_fw.mp4	0.0	300.228866815567	
60	265.5321259498596	fix_post	2		12	58.0	2.5	/experiments/AOT/AOT_stimuli/rescaled_final/1611_fw.mp4	0.0	300.33710980415344	0.09987092018127441
61	265.6319968700409	fix_pre	0		120	59.0	2.5	/experiments/AOT/AOT_stimuli/rescaled_final/1038_rv.mp4	0.0	300.4369807243347	0.9999561309814453
61	266.63195300102234	movie	1		245	59.0	2.5	/experiments/AOT/AOT_stimuli/rescaled_final/1038_rv.mp4	0.0	301.43693685531616	2.5000369548797607
61	267.023885011673	pulse	1	t		59.0	2.5	/experiments/AOT/AOT_stimuli/rescaled_final/1038_rv.mp4	0.0	301.8288688659668	
61	268.6155309677124	pulse	1	t		59.0	2.5	/experiments/AOT/AOT_stimuli/rescaled_final/1038_rv.mp4	0.0	303.4205148220062	
61	269.1319899559021	fix_post	2		12	59.0	2.5	/experiments/AOT/AOT_stimuli/rescaled_final/1038_rv.mp4	0.0	303.9369738101959	0.10004305839538574
62	269.2320330142975	fix_pre	0		119	60.0	2.5	/experiments/AOT/AOT_stimuli/rescaled_final/1979_fw.mp4	0.0	304.0370168685913	0.9915750026702881
62	270.2153618335724	pulse	0	t		60.0	2.5	/experiments/AOT/AOT_stimuli/rescaled_final/1979_fw.mp4	0.0	305.0203456878662	
62	270.2236080169678	movie	1		246	60.0	2.5	/experiments/AOT/AOT_stimuli/rescaled_final/1979_fw.mp4	0.0	305.0285918712616	2.508409023284912
62	271.8155379295349	pulse	1	t		60.0	2.5	/experiments/AOT/AOT_stimuli/rescaled_final/1979_fw.mp4	0.0	306.62052178382874	
62	272.7320170402527	fix_post	2		12	60.0	2.5	/experiments/AOT/AOT_stimuli/rescaled_final/1979_fw.mp4	0.0	307.5370008945465	0.09953880310058594
63	272.83155584335327	fix_pre	0		120	61.0	2.5	/experiments/AOT/AOT_stimuli/rescaled_final/0411_rv.mp4	0.0	307.6365396976471	1.0004210472106934
63	273.4154808521271	pulse	0	t		61.0	2.5	/experiments/AOT/AOT_stimuli/rescaled_final/0411_rv.mp4	0.0	308.2204647064209	
63	273.83197689056396	movie	1		245	61.0	2.5	/experiments/AOT/AOT_stimuli/rescaled_final/0411_rv.mp4	0.0	308.6369607448578	2.499958038330078
63	275.0155119895935	pulse	1	t		61.0	2.5	/experiments/AOT/AOT_stimuli/rescaled_final/0411_rv.mp4	0.0	309.82049584388733	
63	276.33193492889404	fix_post	2		12	61.0	2.5	/experiments/AOT/AOT_stimuli/rescaled_final/0411_rv.mp4	0.0	311.13691878318787	0.09999704360961914
64	276.43193197250366	fix_pre	0		120	62.0	2.5	blank	1.0	311.2369158267975	0.9999589920043945
64	276.6154408454895	pulse	0	t		62.0	2.5	blank	1.0	311.4204246997833	
64	277.43189096450806	movie	1		300	62.0	2.5	blank	1.0	312.2368748188019	2.499616861343384
64	278.2154679298401	pulse	1	t		62.0	2.5	blank	1.0	313.0204517841339	
64	279.8154089450836	pulse	1	t		62.0	2.5	blank	1.0	314.62039279937744	
64	279.93150782585144	fix_post	2		12	62.0	2.5	blank	1.0	314.73649168014526	0.10045218467712402
65	280.03196001052856	fix_pre	0		120	63.0	2.5	/experiments/AOT/AOT_stimuli/rescaled_final/0813_rv.mp4	0.0	314.8369438648224	0.9999120235443115
65	281.0318720340729	movie	1		244	63.0	2.5	/experiments/AOT/AOT_stimuli/rescaled_final/0813_rv.mp4	0.0	315.8368558883667	2.5001039505004883
65	281.42384004592896	pulse	1	t		63.0	2.5	/experiments/AOT/AOT_stimuli/rescaled_final/0813_rv.mp4	0.0	316.2288239002228	
65	283.0163059234619	pulse	1	t		63.0	2.5	/experiments/AOT/AOT_stimuli/rescaled_final/0813_rv.mp4	0.0	317.82128977775574	
65	283.53197598457336	fix_post	2		12	63.0	2.5	/experiments/AOT/AOT_stimuli/rescaled_final/0813_rv.mp4	0.0	318.3369598388672	0.10005497932434082
66	283.6320309638977	fix_pre	0		119	64.0	2.5	/experiments/AOT/AOT_stimuli/rescaled_final/0026_fw.mp4	0.0	318.4370148181915	0.9915289878845215
66	284.6155149936676	pulse	0	t		64.0	2.5	/experiments/AOT/AOT_stimuli/rescaled_final/0026_fw.mp4	0.0	319.4204988479614	
66	284.6235599517822	movie	1		245	64.0	2.5	/experiments/AOT/AOT_stimuli/rescaled_final/0026_fw.mp4	0.0	319.42854380607605	2.508358955383301
66	286.2237889766693	pulse	1	t		64.0	2.5	/experiments/AOT/AOT_stimuli/rescaled_final/0026_fw.mp4	0.0	321.02877283096313	
66	287.1319189071655	fix_post	2		12	64.0	2.5	/experiments/AOT/AOT_stimuli/rescaled_final/0026_fw.mp4	0.0	321.93690276145935	0.10003304481506348
67	287.2319519519806	fix_pre	0		120	65.0	2.5	/experiments/AOT/AOT_stimuli/rescaled_final/2130_fw.mp4	0.0	322.0369358062744	0.9998860359191895
67	287.81540298461914	pulse	0	t		65.0	2.5	/experiments/AOT/AOT_stimuli/rescaled_final/2130_fw.mp4	0.0	322.62038683891296	
67	288.2318379878998	movie	1		246	65.0	2.5	/experiments/AOT/AOT_stimuli/rescaled_final/2130_fw.mp4	0.0	323.0368218421936	2.5000150203704834
67	289.41551184654236	pulse	1	t		65.0	2.5	/experiments/AOT/AOT_stimuli/rescaled_final/2130_fw.mp4	0.0	324.2204957008362	
67	290.73185300827026	fix_post	2		12	65.0	2.5	/experiments/AOT/AOT_stimuli/rescaled_final/2130_fw.mp4	0.0	325.5368368625641	0.10002398490905762
68	290.8318769931793	fix_pre	0		120	66.0	2.5	/experiments/AOT/AOT_stimuli/rescaled_final/0061_rv.mp4	0.0	325.63686084747314	1.000018835067749
68	291.0153968334198	pulse	0	t		66.0	2.5	/experiments/AOT/AOT_stimuli/rescaled_final/0061_rv.mp4	0.0	325.8203806877136	
68	291.83189582824707	movie	1		244	66.0	2.5	/experiments/AOT/AOT_stimuli/rescaled_final/0061_rv.mp4	0.0	326.6368796825409	2.4995992183685303
68	292.615355014801	pulse	1	t		66.0	2.5	/experiments/AOT/AOT_stimuli/rescaled_final/0061_rv.mp4	0.0	327.42033886909485	
68	294.22378182411194	pulse	1	t		66.0	2.5	/experiments/AOT/AOT_stimuli/rescaled_final/0061_rv.mp4	0.0	329.02876567840576	
68	294.3314950466156	fix_post	2		12	66.0	2.5	/experiments/AOT/AOT_stimuli/rescaled_final/0061_rv.mp4	0.0	329.1364789009094	0.10039591789245605
69	294.43189096450806	fix_pre	0		120	67.0	2.5	/experiments/AOT/AOT_stimuli/rescaled_final/0117_fw.mp4	0.0	329.2368748188019	1.0000698566436768
69	295.43196082115173	movie	1		244	67.0	2.5	/experiments/AOT/AOT_stimuli/rescaled_final/0117_fw.mp4	0.0	330.23694467544556	2.4995360374450684
69	295.81499695777893	pulse	1	t		67.0	2.5	/experiments/AOT/AOT_stimuli/rescaled_final/0117_fw.mp4	0.0	330.61998081207275	
69	297.416268825531	pulse	1	t		67.0	2.5	/experiments/AOT/AOT_stimuli/rescaled_final/0117_fw.mp4	0.0	332.22125267982483	
69	297.9314968585968	fix_post	2		12	67.0	2.5	/experiments/AOT/AOT_stimuli/rescaled_final/0117_fw.mp4	0.0	332.7364807128906	0.10054206848144531
70	298.03203892707825	fix_pre	0		120	68.0	2.5	blank	1.0	332.83702278137207	0.9998109340667725
70	299.01620292663574	pulse	0	t		68.0	2.5	blank	1.0	333.82118678092957	
70	299.031849861145	movie	1		301	68.0	2.5	blank	1.0	333.83683371543884	2.508089065551758
70	300.6157720088959	pulse	1	t		68.0	2.5	blank	1.0	335.4207558631897	
70	301.5399389266968	fix_post	2		12	68.0	2.5	blank	1.0	336.3449227809906	0.10023093223571777
71	301.6401698589325	fix_pre	0		120	69.0	2.5	/experiments/AOT/AOT_stimuli/rescaled_final/1928_fw.mp4	0.0	336.4451537132263	0.9999639987945557
71	302.2159118652344	pulse	0	t		69.0	2.5	/experiments/AOT/AOT_stimuli/rescaled_final/1928_fw.mp4	0.0	337.0208957195282	
71	302.64013385772705	movie	1		245	69.0	2.5	/experiments/AOT/AOT_stimuli/rescaled_final/1928_fw.mp4	0.0	337.4451177120209	2.5000970363616943
71	303.81539487838745	pulse	1	t		69.0	2.5	/experiments/AOT/AOT_stimuli/rescaled_final/1928_fw.mp4	0.0	338.6203787326813	
71	305.14023089408875	fix_post	2		12	69.0	2.5	/experiments/AOT/AOT_stimuli/rescaled_final/1928_fw.mp4	0.0	339.94521474838257	0.09992003440856934
72	305.2401509284973	fix_pre	0		120	70.0	2.5	/experiments/AOT/AOT_stimuli/rescaled_final/0991_rv.mp4	0.0	340.04513478279114	0.9996159076690674
72	305.4153199195862	pulse	0	t		70.0	2.5	/experiments/AOT/AOT_stimuli/rescaled_final/0991_rv.mp4	0.0	340.22030377388	
72	306.2397668361664	movie	1		244	70.0	2.5	/experiments/AOT/AOT_stimuli/rescaled_final/0991_rv.mp4	0.0	341.0447506904602	2.5003511905670166
72	307.0153169631958	pulse	1	t		70.0	2.5	/experiments/AOT/AOT_stimuli/rescaled_final/0991_rv.mp4	0.0	341.8203008174896	
72	308.61520981788635	pulse	1	t		70.0	2.5	/experiments/AOT/AOT_stimuli/rescaled_final/0991_rv.mp4	0.0	343.4201936721802	
72	308.7401180267334	fix_post	2		12	70.0	2.5	/experiments/AOT/AOT_stimuli/rescaled_final/0991_rv.mp4	0.0	343.5451018810272	0.09997701644897461
73	308.8400950431824	fix_pre	0		120	71.0	2.5	/experiments/AOT/AOT_stimuli/rescaled_final/0307_rv.mp4	0.0	343.6450788974762	1.0000247955322266
73	309.8401198387146	movie	1		245	71.0	2.5	/experiments/AOT/AOT_stimuli/rescaled_final/0307_rv.mp4	0.0	344.6451036930084	2.4996612071990967
73	310.2151849269867	pulse	1	t		71.0	2.5	/experiments/AOT/AOT_stimuli/rescaled_final/0307_rv.mp4	0.0	345.0201687812805	
73	311.81533002853394	pulse	1	t		71.0	2.5	/experiments/AOT/AOT_stimuli/rescaled_final/0307_rv.mp4	0.0	346.62031388282776	
73	312.3397810459137	fix_post	2		12	71.0	2.5	/experiments/AOT/AOT_stimuli/rescaled_final/0307_rv.mp4	0.0	347.1447649002075	0.10034680366516113
74	312.44012784957886	fix_pre	0		119	72.0	2.5	/experiments/AOT/AOT_stimuli/rescaled_final/1585_rv.mp4	0.0	347.2451117038727	0.9916191101074219
74	313.415962934494	pulse	0	t		72.0	2.5	/experiments/AOT/AOT_stimuli/rescaled_final/1585_rv.mp4	0.0	348.22094678878784	
74	313.4317469596863	movie	1		248	72.0	2.5	/experiments/AOT/AOT_stimuli/rescaled_final/1585_rv.mp4	0.0	348.2367308139801	2.508323907852173
74	315.0235369205475	pulse	1	t		72.0	2.5	/experiments/AOT/AOT_stimuli/rescaled_final/1585_rv.mp4	0.0	349.8285207748413	
74	315.94007086753845	fix_post	2		12	72.0	2.5	/experiments/AOT/AOT_stimuli/rescaled_final/1585_rv.mp4	0.0	350.7450547218323	0.09996700286865234
75	316.0400378704071	fix_pre	0		120	73.0	2.5	/experiments/AOT/AOT_stimuli/rescaled_final/0062_rv.mp4	0.0	350.8450217247009	1.0
75	316.61612486839294	pulse	0	t		73.0	2.5	/experiments/AOT/AOT_stimuli/rescaled_final/0062_rv.mp4	0.0	351.42110872268677	
75	317.0400378704071	movie	1		249	73.0	2.5	/experiments/AOT/AOT_stimuli/rescaled_final/0062_rv.mp4	0.0	351.8450217247009	2.4999470710754395
75	318.21546387672424	pulse	1	t		73.0	2.5	/experiments/AOT/AOT_stimuli/rescaled_final/0062_rv.mp4	0.0	353.02044773101807	
75	319.53998494148254	fix_post	2		12	73.0	2.5	/experiments/AOT/AOT_stimuli/rescaled_final/0062_rv.mp4	0.0	354.34496879577637	0.10004806518554688
76	319.6400330066681	fix_pre	0		120	74.0	2.5	/experiments/AOT/AOT_stimuli/rescaled_final/1289_fw.mp4	0.0	354.4450168609619	1.0000178813934326
76	319.8152108192444	pulse	0	t		74.0	2.5	/experiments/AOT/AOT_stimuli/rescaled_final/1289_fw.mp4	0.0	354.6201946735382	
76	320.6400508880615	movie	1		245	74.0	2.5	/experiments/AOT/AOT_stimuli/rescaled_final/1289_fw.mp4	0.0	355.44503474235535	2.4999499320983887
76	321.4151749610901	pulse	1	t		74.0	2.5	/experiments/AOT/AOT_stimuli/rescaled_final/1289_fw.mp4	0.0	356.2201588153839	
76	323.0152039527893	pulse	1	t		74.0	2.5	/experiments/AOT/AOT_stimuli/rescaled_final/1289_fw.mp4	0.0	357.82018780708313	
76	323.1400008201599	fix_post	2		12	74.0	2.5	/experiments/AOT/AOT_stimuli/rescaled_final/1289_fw.mp4	0.0	357.94498467445374	0.09969019889831543
77	323.2396910190582	fix_pre	0		120	75.0	2.5	/experiments/AOT/AOT_stimuli/rescaled_final/1445_fw.mp4	0.0	358.04467487335205	1.0003488063812256
77	324.24003982543945	movie	1		249	75.0	2.5	/experiments/AOT/AOT_stimuli/rescaled_final/1445_fw.mp4	0.0	359.0450236797333	2.4999091625213623
77	324.6152288913727	pulse	1	t		75.0	2.5	/experiments/AOT/AOT_stimuli/rescaled_final/1445_fw.mp4	0.0	359.4202127456665	
77	326.21523690223694	pulse	1	t		75.0	2.5	/experiments/AOT/AOT_stimuli/rescaled_final/1445_fw.mp4	0.0	361.02022075653076	
77	326.7399489879608	fix_post	2		12	75.0	2.5	/experiments/AOT/AOT_stimuli/rescaled_final/1445_fw.mp4	0.0	361.54493284225464	0.09964704513549805
78	326.8395960330963	fix_pre	0		118	76.0	2.5	blank	1.0	361.64457988739014	0.9837758541107178
78	327.81528091430664	pulse	0	t		76.0	2.5	blank	1.0	362.62026476860046	
78	327.82337188720703	movie	1		301	76.0	2.5	blank	1.0	362.62835574150085	2.5078301429748535
78	329.4159400463104	pulse	1	t		76.0	2.5	blank	1.0	364.22092390060425	
78	330.3312020301819	fix_post	2		12	76.0	2.5	blank	1.0	365.1361858844757	0.10048580169677734
79	330.43168783187866	fix_pre	0		120	77.0	2.5	/experiments/AOT/AOT_stimuli/rescaled_final/0606_fw.mp4	0.0	365.2366716861725	0.9999771118164062
79	331.0160348415375	pulse	0	t		77.0	2.5	/experiments/AOT/AOT_stimuli/rescaled_final/0606_fw.mp4	0.0	365.8210186958313	
79	331.43166494369507	movie	1		247	77.0	2.5	/experiments/AOT/AOT_stimuli/rescaled_final/0606_fw.mp4	0.0	366.2366487979889	2.4995920658111572
79	332.6161160469055	pulse	1	t		77.0	2.5	/experiments/AOT/AOT_stimuli/rescaled_final/0606_fw.mp4	0.0	367.42109990119934	
79	333.9312570095062	fix_post	2		12	77.0	2.5	/experiments/AOT/AOT_stimuli/rescaled_final/0606_fw.mp4	0.0	368.73624086380005	0.10040903091430664
80	334.03166604042053	fix_pre	0		120	78.0	2.5	/experiments/AOT/AOT_stimuli/rescaled_final/0898_rv.mp4	0.0	368.83664989471436	0.9996128082275391
80	334.21591091156006	pulse	0	t		78.0	2.5	/experiments/AOT/AOT_stimuli/rescaled_final/0898_rv.mp4	0.0	369.0208947658539	
80	335.03127884864807	movie	1		245	78.0	2.5	/experiments/AOT/AOT_stimuli/rescaled_final/0898_rv.mp4	0.0	369.8362627029419	2.5000100135803223
80	335.816045999527	pulse	1	t		78.0	2.5	/experiments/AOT/AOT_stimuli/rescaled_final/0898_rv.mp4	0.0	370.6210298538208	
80	337.4238109588623	pulse	1	t		78.0	2.5	/experiments/AOT/AOT_stimuli/rescaled_final/0898_rv.mp4	0.0	372.2287948131561	
80	337.5312888622284	fix_post	2		12	78.0	2.5	/experiments/AOT/AOT_stimuli/rescaled_final/0898_rv.mp4	0.0	372.3362727165222	0.10035014152526855
81	337.63163900375366	fix_pre	0		120	79.0	2.5	/experiments/AOT/AOT_stimuli/rescaled_final/2102_fw.mp4	0.0	372.4366228580475	0.999992847442627
81	338.6316318511963	movie	1		245	79.0	2.5	/experiments/AOT/AOT_stimuli/rescaled_final/2102_fw.mp4	0.0	373.4366157054901	2.4999589920043945
81	339.0161428451538	pulse	1	t		79.0	2.5	/experiments/AOT/AOT_stimuli/rescaled_final/2102_fw.mp4	0.0	373.82112669944763	
81	340.6152448654175	pulse	1	t		79.0	2.5	/experiments/AOT/AOT_stimuli/rescaled_final/2102_fw.mp4	0.0	375.4202287197113	
81	341.1315908432007	fix_post	2		12	79.0	2.5	/experiments/AOT/AOT_stimuli/rescaled_final/2102_fw.mp4	0.0	375.9365746974945	0.10022211074829102
82	341.231812953949	fix_pre	0		119	80.0	2.5	/experiments/AOT/AOT_stimuli/rescaled_final/1515_fw.mp4	0.0	376.0367968082428	0.9915220737457275
82	342.21508598327637	pulse	0	t		80.0	2.5	/experiments/AOT/AOT_stimuli/rescaled_final/1515_fw.mp4	0.0	377.0200698375702	
82	342.2233350276947	movie	1		246	80.0	2.5	/experiments/AOT/AOT_stimuli/rescaled_final/1515_fw.mp4	0.0	377.0283188819885	2.507974863052368
82	343.81622886657715	pulse	1	t		80.0	2.5	/experiments/AOT/AOT_stimuli/rescaled_final/1515_fw.mp4	0.0	378.621212720871	
82	344.73130989074707	fix_post	2		12	80.0	2.5	/experiments/AOT/AOT_stimuli/rescaled_final/1515_fw.mp4	0.0	379.5362937450409	0.10026693344116211
83	344.83157682418823	fix_pre	0		120	81.0	2.5	/experiments/AOT/AOT_stimuli/rescaled_final/0402_fw.mp4	0.0	379.63656067848206	1.000096082687378
83	345.41590785980225	pulse	0	t		81.0	2.5	/experiments/AOT/AOT_stimuli/rescaled_final/0402_fw.mp4	0.0	380.22089171409607	
83	345.8316729068756	movie	1		245	81.0	2.5	/experiments/AOT/AOT_stimuli/rescaled_final/0402_fw.mp4	0.0	380.63665676116943	2.499901056289673
83	347.0167348384857	pulse	1	t		81.0	2.5	/experiments/AOT/AOT_stimuli/rescaled_final/0402_fw.mp4	0.0	381.82171869277954	
83	348.3315739631653	fix_post	2		12	81.0	2.5	/experiments/AOT/AOT_stimuli/rescaled_final/0402_fw.mp4	0.0	383.1365578174591	0.10006499290466309
84	348.43163895606995	fix_pre	0		120	82.0	2.5	/experiments/AOT/AOT_stimuli/rescaled_final/0742_rv.mp4	0.0	383.23662281036377	0.9999020099639893
84	348.6160628795624	pulse	0	t		82.0	2.5	/experiments/AOT/AOT_stimuli/rescaled_final/0742_rv.mp4	0.0	383.4210467338562	
84	349.43154096603394	movie	1		243	82.0	2.5	/experiments/AOT/AOT_stimuli/rescaled_final/0742_rv.mp4	0.0	384.23652482032776	2.4996988773345947
84	350.21596693992615	pulse	1	t		82.0	2.5	/experiments/AOT/AOT_stimuli/rescaled_final/0742_rv.mp4	0.0	385.02095079421997	
84	351.82345485687256	pulse	1	t		82.0	2.5	/experiments/AOT/AOT_stimuli/rescaled_final/0742_rv.mp4	0.0	386.6284387111664	
84	351.93123984336853	fix_post	2		12	82.0	2.5	/experiments/AOT/AOT_stimuli/rescaled_final/0742_rv.mp4	0.0	386.73622369766235	0.10034298896789551
85	352.0315828323364	fix_pre	0		120	83.0	2.5	blank	1.0	386.83656668663025	0.9995880126953125
85	353.03117084503174	movie	1		300	83.0	2.5	blank	1.0	387.83615469932556	2.5004401206970215
85	353.41589283943176	pulse	1	t		83.0	2.5	blank	1.0	388.2208766937256	
85	355.0149939060211	pulse	1	t		83.0	2.5	blank	1.0	389.81997776031494	
85	355.53161096572876	fix_post	2		12	83.0	2.5	blank	1.0	390.3365948200226	0.09990191459655762
87	355.6315128803253	stim	0		1716					390.43649673461914	14.300066947937012
87	356.61583185195923	pulse	0	t						391.42081570625305	
87	358.2149848937988	pulse	0	t						393.01996874809265	
87	359.815141916275	pulse	0	t						394.62012577056885	
87	361.4162118434906	pulse	0	t						396.2211956977844	
87	363.01612281799316	pulse	0	t						397.821106672287	
87	364.616003036499	pulse	0	t						399.42098689079285	
87	366.2159960269928	pulse	0	t						401.0209798812866	
87	367.8160500526428	pulse	0	t						402.62103390693665	
87	369.41598296165466	pulse	0	t						404.2209668159485	
