trial_nr	onset	event_type	phase	response	nr_frames	movie_index	movie_duration	movie_file	blank	onset_abs	duration
0	0.1999349594116211	stim	0		83					23.61087918281555	0.691774845123291
0	0.8836958408355713	response	0	space						24.294640064239502	
1	0.8917098045349121	stim	0		4194					24.302654027938843	34.96775221824646
1	35.8444459438324	pulse	0	t						59.25539016723633	
1	35.85946202278137	stim	1		1715					59.2704062461853	14.297842979431152
1	37.43896293640137	pulse	1	t						60.8499071598053	
1	39.03922200202942	pulse	1	t						62.45016622543335	
1	40.639467000961304	pulse	1	t						64.05041122436523	
1	42.239563941955566	pulse	1	t						65.6505081653595	
1	43.83990001678467	pulse	1	t						67.2508442401886	
1	45.44014000892639	pulse	1	t						68.85108423233032	
1	47.04038190841675	pulse	1	t						70.45132613182068	
1	48.640509843826294	pulse	1	t						72.05145406723022	
2	50.157305002212524	fix_pre	0		11	0.0	2.5	/experiments/knapen_AOT/AOT_stimuli/rescaled_final/1203_rv.mp4	0.0	73.56824922561646	0.09166502952575684
2	50.24084687232971	pulse	0	t		0.0	2.5	/experiments/knapen_AOT/AOT_stimuli/rescaled_final/1203_rv.mp4	0.0	73.65179109573364	
2	50.24897003173828	movie	1		243	0.0	2.5	/experiments/knapen_AOT/AOT_stimuli/rescaled_final/1203_rv.mp4	0.0	73.65991425514221	2.5088138580322266
2	51.841614961624146	pulse	1	t		0.0	2.5	/experiments/knapen_AOT/AOT_stimuli/rescaled_final/1203_rv.mp4	0.0	75.25255918502808	
2	52.75778388977051	fix_post	2		12	0.0	2.5	/experiments/knapen_AOT/AOT_stimuli/rescaled_final/1203_rv.mp4	0.0	76.16872811317444	0.1000070571899414
3	52.85779094696045	fix_pre	0		120	1.0	2.5	/experiments/knapen_AOT/AOT_stimuli/rescaled_final/0184_rv.mp4	0.0	76.26873517036438	1.0000879764556885
3	53.43401002883911	pulse	0	t		1.0	2.5	/experiments/knapen_AOT/AOT_stimuli/rescaled_final/0184_rv.mp4	0.0	76.84495425224304	
3	53.85787892341614	movie	1		243	1.0	2.5	/experiments/knapen_AOT/AOT_stimuli/rescaled_final/0184_rv.mp4	0.0	77.26882314682007	2.5005970001220703
3	55.04172396659851	pulse	1	t		1.0	2.5	/experiments/knapen_AOT/AOT_stimuli/rescaled_final/0184_rv.mp4	0.0	78.45266819000244	
3	56.35847592353821	fix_post	2		12	1.0	2.5	/experiments/knapen_AOT/AOT_stimuli/rescaled_final/0184_rv.mp4	0.0	79.76942014694214	0.09984111785888672
4	56.458317041397095	fix_pre	0		120	2.0	2.5	/experiments/knapen_AOT/AOT_stimuli/rescaled_final/0053_rv.mp4	0.0	79.86926126480103	1.000072956085205
4	56.63433003425598	pulse	0	t		2.0	2.5	/experiments/knapen_AOT/AOT_stimuli/rescaled_final/0053_rv.mp4	0.0	80.04527425765991	
4	57.4583899974823	movie	1		242	2.0	2.5	/experiments/knapen_AOT/AOT_stimuli/rescaled_final/0053_rv.mp4	0.0	80.86933422088623	2.500545024871826
4	58.23460793495178	pulse	1	t		2.0	2.5	/experiments/knapen_AOT/AOT_stimuli/rescaled_final/0053_rv.mp4	0.0	81.64555215835571	
4	59.84194087982178	pulse	1	t		2.0	2.5	/experiments/knapen_AOT/AOT_stimuli/rescaled_final/0053_rv.mp4	0.0	83.25288510322571	
4	59.958935022354126	fix_post	2		12	2.0	2.5	/experiments/knapen_AOT/AOT_stimuli/rescaled_final/0053_rv.mp4	0.0	83.36987924575806	0.09988093376159668
5	60.05881595611572	fix_pre	0		120	3.0	2.5	/experiments/knapen_AOT/AOT_stimuli/rescaled_final/1139_rv.mp4	0.0	83.46976017951965	1.0001978874206543
5	61.05901384353638	movie	1		242	3.0	2.5	/experiments/knapen_AOT/AOT_stimuli/rescaled_final/1139_rv.mp4	0.0	84.46995806694031	2.4921650886535645
5	61.434178829193115	pulse	1	t		3.0	2.5	/experiments/knapen_AOT/AOT_stimuli/rescaled_final/1139_rv.mp4	0.0	84.84512305259705	
5	63.03454303741455	pulse	1	t		3.0	2.5	/experiments/knapen_AOT/AOT_stimuli/rescaled_final/1139_rv.mp4	0.0	86.44548726081848	
5	63.55117893218994	fix_post	2		12	3.0	2.5	/experiments/knapen_AOT/AOT_stimuli/rescaled_final/1139_rv.mp4	0.0	86.96212315559387	0.09981894493103027
6	63.65099787712097	fix_pre	0		119	4.0	2.5	/experiments/knapen_AOT/AOT_stimuli/rescaled_final/1641_fw.mp4	0.0	87.0619421005249	0.9918439388275146
6	64.63460302352905	pulse	0	t		4.0	2.5	/experiments/knapen_AOT/AOT_stimuli/rescaled_final/1641_fw.mp4	0.0	88.04554724693298	
6	64.64284181594849	movie	1		243	4.0	2.5	/experiments/knapen_AOT/AOT_stimuli/rescaled_final/1641_fw.mp4	0.0	88.05378603935242	2.508709192276001
6	66.24003481864929	pulse	1	t		4.0	2.5	/experiments/knapen_AOT/AOT_stimuli/rescaled_final/1641_fw.mp4	0.0	89.65097904205322	
6	67.15155100822449	fix_post	2		12	4.0	2.5	/experiments/knapen_AOT/AOT_stimuli/rescaled_final/1641_fw.mp4	0.0	90.56249523162842	0.09998297691345215
7	67.25153398513794	fix_pre	0		120	5.0	2.5	/experiments/knapen_AOT/AOT_stimuli/rescaled_final/0002_rv.mp4	0.0	90.66247820854187	1.0001440048217773
7	67.83523893356323	pulse	0	t		5.0	2.5	/experiments/knapen_AOT/AOT_stimuli/rescaled_final/0002_rv.mp4	0.0	91.24618315696716	
7	68.25167798995972	movie	1		242	5.0	2.5	/experiments/knapen_AOT/AOT_stimuli/rescaled_final/0002_rv.mp4	0.0	91.66262221336365	2.5004830360412598
7	69.43560290336609	pulse	1	t		5.0	2.5	/experiments/knapen_AOT/AOT_stimuli/rescaled_final/0002_rv.mp4	0.0	92.84654712677002	
7	70.75216102600098	fix_post	2		12	5.0	2.5	/experiments/knapen_AOT/AOT_stimuli/rescaled_final/0002_rv.mp4	0.0	94.16310524940491	0.09996986389160156
8	70.85213088989258	fix_pre	0		120	6.0	2.5	/experiments/knapen_AOT/AOT_stimuli/rescaled_final/0055_rv.mp4	0.0	94.26307511329651	1.0001311302185059
8	71.0355589389801	pulse	0	t		6.0	2.5	/experiments/knapen_AOT/AOT_stimuli/rescaled_final/0055_rv.mp4	0.0	94.44650316238403	
8	71.85226202011108	movie	1		242	6.0	2.5	/experiments/knapen_AOT/AOT_stimuli/rescaled_final/0055_rv.mp4	0.0	95.26320624351501	2.5004489421844482
8	72.63588380813599	pulse	1	t		6.0	2.5	/experiments/knapen_AOT/AOT_stimuli/rescaled_final/0055_rv.mp4	0.0	96.04682803153992	
8	74.23692297935486	pulse	1	t		6.0	2.5	/experiments/knapen_AOT/AOT_stimuli/rescaled_final/0055_rv.mp4	0.0	97.64786720275879	
8	74.35271096229553	fix_post	2		12	6.0	2.5	/experiments/knapen_AOT/AOT_stimuli/rescaled_final/0055_rv.mp4	0.0	97.76365518569946	0.09996390342712402
9	74.45267486572266	fix_pre	0		119	7.0	2.5	blank	1.0	97.86361908912659	0.9917471408843994
9	75.44442200660706	movie	1		300	7.0	2.5	blank	1.0	98.85536623001099	2.500408887863159
9	75.83639001846313	pulse	1	t		7.0	2.5	blank	1.0	99.24733424186707	
9	77.43663597106934	pulse	1	t		7.0	2.5	blank	1.0	100.84758019447327	
9	77.94483089447021	fix_post	2		12	7.0	2.5	blank	1.0	101.35577511787415	0.09998512268066406
10	78.04481601715088	fix_pre	0		120	8.0	2.5	/experiments/knapen_AOT/AOT_stimuli/rescaled_final/0481_fw.mp4	0.0	101.45576024055481	1.0002169609069824
10	79.03680896759033	pulse	0	t		8.0	2.5	/experiments/knapen_AOT/AOT_stimuli/rescaled_final/0481_fw.mp4	0.0	102.44775319099426	
10	79.04503297805786	movie	1		245	8.0	2.5	/experiments/knapen_AOT/AOT_stimuli/rescaled_final/0481_fw.mp4	0.0	102.45597720146179	2.5086779594421387
10	80.63845992088318	pulse	1	t		8.0	2.5	/experiments/knapen_AOT/AOT_stimuli/rescaled_final/0481_fw.mp4	0.0	104.04940414428711	
10	81.5537109375	fix_post	2		12	8.0	2.5	/experiments/knapen_AOT/AOT_stimuli/rescaled_final/0481_fw.mp4	0.0	104.96465516090393	0.10004687309265137
11	81.65375781059265	fix_pre	0		120	9.0	2.5	/experiments/knapen_AOT/AOT_stimuli/rescaled_final/0526_fw.mp4	0.0	105.06470203399658	1.000115156173706
11	82.23731398582458	pulse	0	t		9.0	2.5	/experiments/knapen_AOT/AOT_stimuli/rescaled_final/0526_fw.mp4	0.0	105.64825820922852	
11	82.65387296676636	movie	1		243	9.0	2.5	/experiments/knapen_AOT/AOT_stimuli/rescaled_final/0526_fw.mp4	0.0	106.06481719017029	2.5003600120544434
11	83.83760786056519	pulse	1	t		9.0	2.5	/experiments/knapen_AOT/AOT_stimuli/rescaled_final/0526_fw.mp4	0.0	107.24855208396912	
11	85.1542329788208	fix_post	2		12	9.0	2.5	/experiments/knapen_AOT/AOT_stimuli/rescaled_final/0526_fw.mp4	0.0	108.56517720222473	0.10012292861938477
12	85.25435590744019	fix_pre	0		120	10.0	2.5	/experiments/knapen_AOT/AOT_stimuli/rescaled_final/0422_rv.mp4	0.0	108.66530013084412	1.0000040531158447
12	85.43778681755066	pulse	0	t		10.0	2.5	/experiments/knapen_AOT/AOT_stimuli/rescaled_final/0422_rv.mp4	0.0	108.84873104095459	
12	86.25435996055603	movie	1		242	10.0	2.5	/experiments/knapen_AOT/AOT_stimuli/rescaled_final/0422_rv.mp4	0.0	109.66530418395996	2.4921250343322754
12	87.0380609035492	pulse	1	t		10.0	2.5	/experiments/knapen_AOT/AOT_stimuli/rescaled_final/0422_rv.mp4	0.0	110.44900512695312	
12	88.63813400268555	pulse	1	t		10.0	2.5	/experiments/knapen_AOT/AOT_stimuli/rescaled_final/0422_rv.mp4	0.0	112.04907822608948	
12	88.7464849948883	fix_post	2		13	10.0	2.5	/experiments/knapen_AOT/AOT_stimuli/rescaled_final/0422_rv.mp4	0.0	112.15742921829224	0.10832595825195312
13	88.85481095314026	fix_pre	0		120	11.0	2.5	/experiments/knapen_AOT/AOT_stimuli/rescaled_final/0526_rv.mp4	0.0	112.26575517654419	1.0001049041748047
13	89.85491585731506	movie	1		239	11.0	2.5	/experiments/knapen_AOT/AOT_stimuli/rescaled_final/0526_rv.mp4	0.0	113.265860080719	2.492033004760742
13	90.2391049861908	pulse	1	t		11.0	2.5	/experiments/knapen_AOT/AOT_stimuli/rescaled_final/0526_rv.mp4	0.0	113.65004920959473	
13	91.83874201774597	pulse	1	t		11.0	2.5	/experiments/knapen_AOT/AOT_stimuli/rescaled_final/0526_rv.mp4	0.0	115.2496862411499	
13	92.3469488620758	fix_post	2		12	11.0	2.5	/experiments/knapen_AOT/AOT_stimuli/rescaled_final/0526_rv.mp4	0.0	115.75789308547974	0.10000896453857422
14	92.44695782661438	fix_pre	0		120	12.0	2.5	/experiments/knapen_AOT/AOT_stimuli/rescaled_final/0338_fw.mp4	0.0	115.85790205001831	1.0001981258392334
14	93.43902587890625	pulse	0	t		12.0	2.5	/experiments/knapen_AOT/AOT_stimuli/rescaled_final/0338_fw.mp4	0.0	116.84997010231018	
14	93.44715595245361	movie	1		244	12.0	2.5	/experiments/knapen_AOT/AOT_stimuli/rescaled_final/0338_fw.mp4	0.0	116.85810017585754	2.5087029933929443
14	95.0406448841095	pulse	1	t		12.0	2.5	/experiments/knapen_AOT/AOT_stimuli/rescaled_final/0338_fw.mp4	0.0	118.45158910751343	
14	95.95585894584656	fix_post	2		12	12.0	2.5	/experiments/knapen_AOT/AOT_stimuli/rescaled_final/0338_fw.mp4	0.0	119.36680316925049	0.10002899169921875
15	96.05588793754578	fix_pre	0		120	13.0	2.5	/experiments/knapen_AOT/AOT_stimuli/rescaled_final/0289_rv.mp4	0.0	119.4668321609497	1.0001258850097656
15	96.6394100189209	pulse	0	t		13.0	2.5	/experiments/knapen_AOT/AOT_stimuli/rescaled_final/0289_rv.mp4	0.0	120.05035424232483	
15	97.05601382255554	movie	1		244	13.0	2.5	/experiments/knapen_AOT/AOT_stimuli/rescaled_final/0289_rv.mp4	0.0	120.46695804595947	2.500326156616211
15	98.23557090759277	pulse	1	t		13.0	2.5	/experiments/knapen_AOT/AOT_stimuli/rescaled_final/0289_rv.mp4	0.0	121.6465151309967	
15	99.55633997917175	fix_post	2		12	13.0	2.5	/experiments/knapen_AOT/AOT_stimuli/rescaled_final/0289_rv.mp4	0.0	122.96728420257568	0.10005998611450195
16	99.65639996528625	fix_pre	0		120	14.0	2.5	blank	1.0	123.06734418869019	1.0001089572906494
16	99.83994483947754	pulse	0	t		14.0	2.5	blank	1.0	123.25088906288147	
16	100.6565089225769	movie	1		300	14.0	2.5	blank	1.0	124.06745314598083	2.500446081161499
16	101.44016790390015	pulse	1	t		14.0	2.5	blank	1.0	124.85111212730408	
16	103.04034996032715	pulse	1	t		14.0	2.5	blank	1.0	126.45129418373108	
16	103.1569550037384	fix_post	2		12	14.0	2.5	blank	1.0	126.56789922714233	0.10000300407409668
17	103.2569580078125	fix_pre	0		120	15.0	2.5	/experiments/knapen_AOT/AOT_stimuli/rescaled_final/1355_fw.mp4	0.0	126.66790223121643	1.0001699924468994
17	104.2571280002594	movie	1		242	15.0	2.5	/experiments/knapen_AOT/AOT_stimuli/rescaled_final/1355_fw.mp4	0.0	127.66807222366333	2.4921488761901855
17	104.64111495018005	pulse	1	t		15.0	2.5	/experiments/knapen_AOT/AOT_stimuli/rescaled_final/1355_fw.mp4	0.0	128.05205917358398	
17	106.24089193344116	pulse	1	t		15.0	2.5	/experiments/knapen_AOT/AOT_stimuli/rescaled_final/1355_fw.mp4	0.0	129.6518361568451	
17	106.74927687644958	fix_post	2		12	15.0	2.5	/experiments/knapen_AOT/AOT_stimuli/rescaled_final/1355_fw.mp4	0.0	130.16022109985352	0.09983301162719727
18	106.84910988807678	fix_pre	0		120	16.0	2.5	/experiments/knapen_AOT/AOT_stimuli/rescaled_final/1114_rv.mp4	0.0	130.2600541114807	1.0001609325408936
18	107.83365082740784	pulse	0	t		16.0	2.5	/experiments/knapen_AOT/AOT_stimuli/rescaled_final/1114_rv.mp4	0.0	131.24459505081177	
18	107.84927082061768	movie	1		243	16.0	2.5	/experiments/knapen_AOT/AOT_stimuli/rescaled_final/1114_rv.mp4	0.0	131.2602150440216	2.508756160736084
18	109.44187998771667	pulse	1	t		16.0	2.5	/experiments/knapen_AOT/AOT_stimuli/rescaled_final/1114_rv.mp4	0.0	132.8528242111206	
18	110.35802698135376	fix_post	2		12	16.0	2.5	/experiments/knapen_AOT/AOT_stimuli/rescaled_final/1114_rv.mp4	0.0	133.7689712047577	0.10007691383361816
19	110.45810389518738	fix_pre	0		120	17.0	2.5	/experiments/knapen_AOT/AOT_stimuli/rescaled_final/0877_rv.mp4	0.0	133.8690481185913	1.0001270771026611
19	111.03414797782898	pulse	0	t		17.0	2.5	/experiments/knapen_AOT/AOT_stimuli/rescaled_final/0877_rv.mp4	0.0	134.4450922012329	
19	111.45823097229004	movie	1		243	17.0	2.5	/experiments/knapen_AOT/AOT_stimuli/rescaled_final/0877_rv.mp4	0.0	134.86917519569397	2.500359058380127
19	112.63786697387695	pulse	1	t		17.0	2.5	/experiments/knapen_AOT/AOT_stimuli/rescaled_final/0877_rv.mp4	0.0	136.04881119728088	
19	113.95859003067017	fix_post	2		12	17.0	2.5	/experiments/knapen_AOT/AOT_stimuli/rescaled_final/0877_rv.mp4	0.0	137.3695342540741	0.09992194175720215
20	114.05851197242737	fix_pre	0		120	18.0	2.5	/experiments/knapen_AOT/AOT_stimuli/rescaled_final/1341_rv.mp4	0.0	137.4694561958313	1.0001869201660156
20	114.23383402824402	pulse	0	t		18.0	2.5	/experiments/knapen_AOT/AOT_stimuli/rescaled_final/1341_rv.mp4	0.0	137.64477825164795	
20	115.05869889259338	movie	1		243	18.0	2.5	/experiments/knapen_AOT/AOT_stimuli/rescaled_final/1341_rv.mp4	0.0	138.46964311599731	2.5005359649658203
20	115.83391284942627	pulse	1	t		18.0	2.5	/experiments/knapen_AOT/AOT_stimuli/rescaled_final/1341_rv.mp4	0.0	139.2448570728302	
20	117.43415999412537	pulse	1	t		18.0	2.5	/experiments/knapen_AOT/AOT_stimuli/rescaled_final/1341_rv.mp4	0.0	140.8451042175293	
20	117.5592348575592	fix_post	2		12	18.0	2.5	/experiments/knapen_AOT/AOT_stimuli/rescaled_final/1341_rv.mp4	0.0	140.97017908096313	0.09988999366760254
21	117.6591248512268	fix_pre	0		120	19.0	2.5	/experiments/knapen_AOT/AOT_stimuli/rescaled_final/0025_rv.mp4	0.0	141.07006907463074	1.0000941753387451
21	118.65921902656555	movie	1		242	19.0	2.5	/experiments/knapen_AOT/AOT_stimuli/rescaled_final/0025_rv.mp4	0.0	142.07016324996948	2.4922659397125244
21	119.03447604179382	pulse	1	t		19.0	2.5	/experiments/knapen_AOT/AOT_stimuli/rescaled_final/0025_rv.mp4	0.0	142.44542026519775	
21	120.6347668170929	pulse	1	t		19.0	2.5	/experiments/knapen_AOT/AOT_stimuli/rescaled_final/0025_rv.mp4	0.0	144.04571104049683	
21	121.15148496627808	fix_post	2		12	19.0	2.5	/experiments/knapen_AOT/AOT_stimuli/rescaled_final/0025_rv.mp4	0.0	144.562429189682	0.09976887702941895
22	121.2512538433075	fix_pre	0		119	20.0	2.5	/experiments/knapen_AOT/AOT_stimuli/rescaled_final/1188_fw.mp4	0.0	144.66219806671143	0.991840124130249
22	122.23503184318542	pulse	0	t		20.0	2.5	/experiments/knapen_AOT/AOT_stimuli/rescaled_final/1188_fw.mp4	0.0	145.64597606658936	
22	122.24309396743774	movie	1		244	20.0	2.5	/experiments/knapen_AOT/AOT_stimuli/rescaled_final/1188_fw.mp4	0.0	145.65403819084167	2.508725881576538
22	123.83587598800659	pulse	1	t		20.0	2.5	/experiments/knapen_AOT/AOT_stimuli/rescaled_final/1188_fw.mp4	0.0	147.24682021141052	
22	124.75181984901428	fix_post	2		12	20.0	2.5	/experiments/knapen_AOT/AOT_stimuli/rescaled_final/1188_fw.mp4	0.0	148.1627640724182	0.10001301765441895
23	124.8518328666687	fix_pre	0		120	21.0	2.5	blank	1.0	148.26277709007263	1.000180959701538
23	125.43542790412903	pulse	0	t		21.0	2.5	blank	1.0	148.84637212753296	
23	125.85201382637024	movie	1		300	21.0	2.5	blank	1.0	149.26295804977417	2.5002942085266113
23	127.03560185432434	pulse	1	t		21.0	2.5	blank	1.0	150.44654607772827	
23	128.35230803489685	fix_post	2		12	21.0	2.5	blank	1.0	151.76325225830078	0.10003399848937988
24	128.45234203338623	fix_pre	0		120	22.0	2.5	/experiments/knapen_AOT/AOT_stimuli/rescaled_final/0289_fw.mp4	0.0	151.86328625679016	1.0001168251037598
24	128.6361219882965	pulse	0	t		22.0	2.5	/experiments/knapen_AOT/AOT_stimuli/rescaled_final/0289_fw.mp4	0.0	152.04706621170044	
24	129.45245885849	movie	1		244	22.0	2.5	/experiments/knapen_AOT/AOT_stimuli/rescaled_final/0289_fw.mp4	0.0	152.86340308189392	2.500483989715576
24	130.23621797561646	pulse	1	t		22.0	2.5	/experiments/knapen_AOT/AOT_stimuli/rescaled_final/0289_fw.mp4	0.0	153.64716219902039	
24	131.83626699447632	pulse	1	t		22.0	2.5	/experiments/knapen_AOT/AOT_stimuli/rescaled_final/0289_fw.mp4	0.0	155.24721121788025	
24	131.95294284820557	fix_post	2		12	22.0	2.5	/experiments/knapen_AOT/AOT_stimuli/rescaled_final/0289_fw.mp4	0.0	155.3638870716095	0.09998798370361328
25	132.05293083190918	fix_pre	0		120	23.0	2.5	/experiments/knapen_AOT/AOT_stimuli/rescaled_final/1014_fw.mp4	0.0	155.4638750553131	1.000101089477539
25	133.05303192138672	movie	1		241	23.0	2.5	/experiments/knapen_AOT/AOT_stimuli/rescaled_final/1014_fw.mp4	0.0	156.46397614479065	2.4921650886535645
25	133.44121885299683	pulse	1	t		23.0	2.5	/experiments/knapen_AOT/AOT_stimuli/rescaled_final/1014_fw.mp4	0.0	156.85216307640076	
25	135.03679490089417	pulse	1	t		23.0	2.5	/experiments/knapen_AOT/AOT_stimuli/rescaled_final/1014_fw.mp4	0.0	158.4477391242981	
25	135.54519701004028	fix_post	2		12	23.0	2.5	/experiments/knapen_AOT/AOT_stimuli/rescaled_final/1014_fw.mp4	0.0	158.9561412334442	0.09994292259216309
26	135.64513993263245	fix_pre	0		120	24.0	2.5	/experiments/knapen_AOT/AOT_stimuli/rescaled_final/0605_fw.mp4	0.0	159.05608415603638	1.0000898838043213
26	136.6370828151703	pulse	0	t		24.0	2.5	/experiments/knapen_AOT/AOT_stimuli/rescaled_final/0605_fw.mp4	0.0	160.04802703857422	
26	136.64522981643677	movie	1		243	24.0	2.5	/experiments/knapen_AOT/AOT_stimuli/rescaled_final/0605_fw.mp4	0.0	160.0561740398407	2.508820056915283
26	138.238018989563	pulse	1	t		24.0	2.5	/experiments/knapen_AOT/AOT_stimuli/rescaled_final/0605_fw.mp4	0.0	161.64896321296692	
26	139.15404987335205	fix_post	2		12	24.0	2.5	/experiments/knapen_AOT/AOT_stimuli/rescaled_final/0605_fw.mp4	0.0	162.56499409675598	0.09991312026977539
27	139.25396299362183	fix_pre	0		120	25.0	2.5	/experiments/knapen_AOT/AOT_stimuli/rescaled_final/0947_rv.mp4	0.0	162.66490721702576	1.0002038478851318
27	139.8375449180603	pulse	0	t		25.0	2.5	/experiments/knapen_AOT/AOT_stimuli/rescaled_final/0947_rv.mp4	0.0	163.24848914146423	
27	140.25416684150696	movie	1		243	25.0	2.5	/experiments/knapen_AOT/AOT_stimuli/rescaled_final/0947_rv.mp4	0.0	163.6651110649109	2.5003910064697266
27	141.43791699409485	pulse	1	t		25.0	2.5	/experiments/knapen_AOT/AOT_stimuli/rescaled_final/0947_rv.mp4	0.0	164.84886121749878	
27	142.75455784797668	fix_post	2		12	25.0	2.5	/experiments/knapen_AOT/AOT_stimuli/rescaled_final/0947_rv.mp4	0.0	166.16550207138062	0.09990906715393066
28	142.85446691513062	fix_pre	0		120	26.0	2.5	blank	1.0	166.26541113853455	1.0001449584960938
28	143.03814387321472	pulse	0	t		26.0	2.5	blank	1.0	166.44908809661865	
28	143.8546118736267	movie	1		300	26.0	2.5	blank	1.0	167.26555609703064	2.5004091262817383
28	144.63837099075317	pulse	1	t		26.0	2.5	blank	1.0	168.0493152141571	
28	146.23846697807312	pulse	1	t		26.0	2.5	blank	1.0	169.64941120147705	
28	146.35502099990845	fix_post	2		12	26.0	2.5	blank	1.0	169.76596522331238	0.10002994537353516
29	146.45505094528198	fix_pre	0		120	27.0	2.5	/experiments/knapen_AOT/AOT_stimuli/rescaled_final/0596_rv.mp4	0.0	169.8659951686859	1.000175952911377
29	147.45522689819336	movie	1		242	27.0	2.5	/experiments/knapen_AOT/AOT_stimuli/rescaled_final/0596_rv.mp4	0.0	170.8661711215973	2.492187023162842
29	147.83932995796204	pulse	1	t		27.0	2.5	/experiments/knapen_AOT/AOT_stimuli/rescaled_final/0596_rv.mp4	0.0	171.25027418136597	
29	149.43904185295105	pulse	1	t		27.0	2.5	/experiments/knapen_AOT/AOT_stimuli/rescaled_final/0596_rv.mp4	0.0	172.84998607635498	
29	149.9474139213562	fix_post	2		9	27.0	2.5	/experiments/knapen_AOT/AOT_stimuli/rescaled_final/0596_rv.mp4	0.0	173.35835814476013	0.09984111785888672
30	150.0472550392151	fix_pre	0		120	28.0	2.5	/experiments/knapen_AOT/AOT_stimuli/rescaled_final/2038_fw.mp4	0.0	173.45819926261902	1.0001139640808105
30	151.03935980796814	pulse	0	t		28.0	2.5	/experiments/knapen_AOT/AOT_stimuli/rescaled_final/2038_fw.mp4	0.0	174.45030403137207	
30	151.0473690032959	movie	1		247	28.0	2.5	/experiments/knapen_AOT/AOT_stimuli/rescaled_final/2038_fw.mp4	0.0	174.45831322669983	2.508780002593994
30	152.64080786705017	pulse	1	t		28.0	2.5	/experiments/knapen_AOT/AOT_stimuli/rescaled_final/2038_fw.mp4	0.0	176.0517520904541	
30	153.5561490058899	fix_post	2		12	28.0	2.5	/experiments/knapen_AOT/AOT_stimuli/rescaled_final/2038_fw.mp4	0.0	176.96709322929382	0.10000801086425781
31	153.65615701675415	fix_pre	0		120	29.0	2.5	/experiments/knapen_AOT/AOT_stimuli/rescaled_final/0522_fw.mp4	0.0	177.06710124015808	1.0001399517059326
31	154.23967385292053	pulse	0	t		29.0	2.5	/experiments/knapen_AOT/AOT_stimuli/rescaled_final/0522_fw.mp4	0.0	177.65061807632446	
31	154.65629696846008	movie	1		243	29.0	2.5	/experiments/knapen_AOT/AOT_stimuli/rescaled_final/0522_fw.mp4	0.0	178.067241191864	2.50044584274292
31	155.8399739265442	pulse	1	t		29.0	2.5	/experiments/knapen_AOT/AOT_stimuli/rescaled_final/0522_fw.mp4	0.0	179.25091814994812	
31	157.156742811203	fix_post	2		12	29.0	2.5	/experiments/knapen_AOT/AOT_stimuli/rescaled_final/0522_fw.mp4	0.0	180.56768703460693	0.09988999366760254
32	157.2566328048706	fix_pre	0		120	30.0	2.5	/experiments/knapen_AOT/AOT_stimuli/rescaled_final/1982_fw.mp4	0.0	180.66757702827454	1.0001411437988281
32	157.44025588035583	pulse	0	t		30.0	2.5	/experiments/knapen_AOT/AOT_stimuli/rescaled_final/1982_fw.mp4	0.0	180.85120010375977	
32	158.25677394866943	movie	1		242	30.0	2.5	/experiments/knapen_AOT/AOT_stimuli/rescaled_final/1982_fw.mp4	0.0	181.66771817207336	2.5006320476531982
32	159.0405979156494	pulse	1	t		30.0	2.5	/experiments/knapen_AOT/AOT_stimuli/rescaled_final/1982_fw.mp4	0.0	182.45154213905334	
32	160.64069986343384	pulse	1	t		30.0	2.5	/experiments/knapen_AOT/AOT_stimuli/rescaled_final/1982_fw.mp4	0.0	184.05164408683777	
32	160.75740599632263	fix_post	2		12	30.0	2.5	/experiments/knapen_AOT/AOT_stimuli/rescaled_final/1982_fw.mp4	0.0	184.16835021972656	0.09982585906982422
33	160.85723185539246	fix_pre	0		120	31.0	2.5	/experiments/knapen_AOT/AOT_stimuli/rescaled_final/0664_fw.mp4	0.0	184.2681760787964	1.0000929832458496
33	161.8573248386383	movie	1		241	31.0	2.5	/experiments/knapen_AOT/AOT_stimuli/rescaled_final/0664_fw.mp4	0.0	185.26826906204224	2.492124080657959
33	162.24155402183533	pulse	1	t		31.0	2.5	/experiments/knapen_AOT/AOT_stimuli/rescaled_final/0664_fw.mp4	0.0	185.65249824523926	
33	163.83376502990723	pulse	1	t		31.0	2.5	/experiments/knapen_AOT/AOT_stimuli/rescaled_final/0664_fw.mp4	0.0	187.24470925331116	
33	164.34944891929626	fix_post	2		12	31.0	2.5	/experiments/knapen_AOT/AOT_stimuli/rescaled_final/0664_fw.mp4	0.0	187.7603931427002	0.09992599487304688
34	164.4493749141693	fix_pre	0		120	32.0	2.5	/experiments/knapen_AOT/AOT_stimuli/rescaled_final/1746_rv.mp4	0.0	187.86031913757324	1.0001740455627441
34	165.4338858127594	pulse	0	t		32.0	2.5	/experiments/knapen_AOT/AOT_stimuli/rescaled_final/1746_rv.mp4	0.0	188.84483003616333	
34	165.44954895973206	movie	1		243	32.0	2.5	/experiments/knapen_AOT/AOT_stimuli/rescaled_final/1746_rv.mp4	0.0	188.860493183136	2.5088050365448
34	167.0334439277649	pulse	1	t		32.0	2.5	/experiments/knapen_AOT/AOT_stimuli/rescaled_final/1746_rv.mp4	0.0	190.44438815116882	
34	167.95835399627686	fix_post	2		12	32.0	2.5	/experiments/knapen_AOT/AOT_stimuli/rescaled_final/1746_rv.mp4	0.0	191.3692982196808	0.09994792938232422
35	168.05830192565918	fix_pre	0		120	33.0	2.5	/experiments/knapen_AOT/AOT_stimuli/rescaled_final/1117_fw.mp4	0.0	191.4692461490631	1.000082015991211
35	168.6334788799286	pulse	0	t		33.0	2.5	/experiments/knapen_AOT/AOT_stimuli/rescaled_final/1117_fw.mp4	0.0	192.04442310333252	
35	169.0583839416504	movie	1		242	33.0	2.5	/experiments/knapen_AOT/AOT_stimuli/rescaled_final/1117_fw.mp4	0.0	192.46932816505432	2.500596046447754
35	170.23463702201843	pulse	1	t		33.0	2.5	/experiments/knapen_AOT/AOT_stimuli/rescaled_final/1117_fw.mp4	0.0	193.64558124542236	
35	171.55897998809814	fix_post	2		12	33.0	2.5	/experiments/knapen_AOT/AOT_stimuli/rescaled_final/1117_fw.mp4	0.0	194.96992421150208	0.09983181953430176
36	171.65881180763245	fix_pre	0		120	34.0	2.5	/experiments/knapen_AOT/AOT_stimuli/rescaled_final/0179_rv.mp4	0.0	195.06975603103638	1.0001211166381836
36	171.8339719772339	pulse	0	t		34.0	2.5	/experiments/knapen_AOT/AOT_stimuli/rescaled_final/0179_rv.mp4	0.0	195.24491620063782	
36	172.65893292427063	movie	1		242	34.0	2.5	/experiments/knapen_AOT/AOT_stimuli/rescaled_final/0179_rv.mp4	0.0	196.06987714767456	2.5005710124969482
36	173.43422102928162	pulse	1	t		34.0	2.5	/experiments/knapen_AOT/AOT_stimuli/rescaled_final/0179_rv.mp4	0.0	196.84516525268555	
36	175.03448796272278	pulse	1	t		34.0	2.5	/experiments/knapen_AOT/AOT_stimuli/rescaled_final/0179_rv.mp4	0.0	198.4454321861267	
36	175.15950393676758	fix_post	2		12	34.0	2.5	/experiments/knapen_AOT/AOT_stimuli/rescaled_final/0179_rv.mp4	0.0	198.5704481601715	0.09988808631896973
37	175.25939202308655	fix_pre	0		120	35.0	2.5	blank	1.0	198.67033624649048	1.0000689029693604
37	176.2594609260559	movie	1		299	35.0	2.5	blank	1.0	199.67040514945984	2.4920499324798584
37	176.63473892211914	pulse	1	t		35.0	2.5	blank	1.0	200.04568314552307	
37	178.2349410057068	pulse	1	t		35.0	2.5	blank	1.0	201.64588522911072	
37	178.75151085853577	fix_post	2		12	35.0	2.5	blank	1.0	202.1624550819397	0.10004210472106934
38	178.85155296325684	fix_pre	0		119	36.0	2.5	/experiments/knapen_AOT/AOT_stimuli/rescaled_final/1224_rv.mp4	0.0	202.26249718666077	0.9917809963226318
38	179.83517694473267	pulse	0	t		36.0	2.5	/experiments/knapen_AOT/AOT_stimuli/rescaled_final/1224_rv.mp4	0.0	203.2461211681366	
38	179.84333395957947	movie	1		243	36.0	2.5	/experiments/knapen_AOT/AOT_stimuli/rescaled_final/1224_rv.mp4	0.0	203.2542781829834	2.5087709426879883
38	181.44028687477112	pulse	1	t		36.0	2.5	/experiments/knapen_AOT/AOT_stimuli/rescaled_final/1224_rv.mp4	0.0	204.85123109817505	
38	182.35210490226746	fix_post	2		12	36.0	2.5	/experiments/knapen_AOT/AOT_stimuli/rescaled_final/1224_rv.mp4	0.0	205.7630491256714	0.09993600845336914
39	182.45204091072083	fix_pre	0		120	37.0	2.5	/experiments/knapen_AOT/AOT_stimuli/rescaled_final/0164_rv.mp4	0.0	205.86298513412476	1.0001909732818604
39	183.0356249809265	pulse	0	t		37.0	2.5	/experiments/knapen_AOT/AOT_stimuli/rescaled_final/0164_rv.mp4	0.0	206.44656920433044	
39	183.45223188400269	movie	1		242	37.0	2.5	/experiments/knapen_AOT/AOT_stimuli/rescaled_final/0164_rv.mp4	0.0	206.86317610740662	2.500478982925415
39	184.63608598709106	pulse	1	t		37.0	2.5	/experiments/knapen_AOT/AOT_stimuli/rescaled_final/0164_rv.mp4	0.0	208.047030210495	
39	185.9527108669281	fix_post	2		12	37.0	2.5	/experiments/knapen_AOT/AOT_stimuli/rescaled_final/0164_rv.mp4	0.0	209.36365509033203	0.1000051498413086
40	186.0527160167694	fix_pre	0		120	38.0	2.5	/experiments/knapen_AOT/AOT_stimuli/rescaled_final/0999_fw.mp4	0.0	209.46366024017334	1.0000669956207275
40	186.23615288734436	pulse	0	t		38.0	2.5	/experiments/knapen_AOT/AOT_stimuli/rescaled_final/0999_fw.mp4	0.0	209.6470971107483	
40	187.05278301239014	movie	1		243	38.0	2.5	/experiments/knapen_AOT/AOT_stimuli/rescaled_final/0999_fw.mp4	0.0	210.46372723579407	2.5004968643188477
40	187.83640384674072	pulse	1	t		38.0	2.5	/experiments/knapen_AOT/AOT_stimuli/rescaled_final/0999_fw.mp4	0.0	211.24734807014465	
40	189.4366159439087	pulse	1	t		38.0	2.5	/experiments/knapen_AOT/AOT_stimuli/rescaled_final/0999_fw.mp4	0.0	212.84756016731262	
40	189.55327987670898	fix_post	2		12	38.0	2.5	/experiments/knapen_AOT/AOT_stimuli/rescaled_final/0999_fw.mp4	0.0	212.96422410011292	0.09983611106872559
41	189.6531159877777	fix_pre	0		120	39.0	2.5	/experiments/knapen_AOT/AOT_stimuli/rescaled_final/1181_rv.mp4	0.0	213.06406021118164	1.0001709461212158
41	190.65328693389893	movie	1		241	39.0	2.5	/experiments/knapen_AOT/AOT_stimuli/rescaled_final/1181_rv.mp4	0.0	214.06423115730286	2.4921369552612305
41	191.03747391700745	pulse	1	t		39.0	2.5	/experiments/knapen_AOT/AOT_stimuli/rescaled_final/1181_rv.mp4	0.0	214.44841814041138	
41	192.63718795776367	pulse	1	t		39.0	2.5	/experiments/knapen_AOT/AOT_stimuli/rescaled_final/1181_rv.mp4	0.0	216.0481321811676	
41	193.14542388916016	fix_post	2		12	39.0	2.5	/experiments/knapen_AOT/AOT_stimuli/rescaled_final/1181_rv.mp4	0.0	216.5563681125641	0.0999600887298584
42	193.24538397789001	fix_pre	0		120	40.0	2.5	blank	1.0	216.65632820129395	1.0000989437103271
42	194.23738503456116	pulse	0	t		40.0	2.5	blank	1.0	217.6483292579651	
42	194.24548292160034	movie	1		301	40.0	2.5	blank	1.0	217.65642714500427	2.5087509155273438
42	195.83752703666687	pulse	1	t		40.0	2.5	blank	1.0	219.2484712600708	
42	196.75423383712769	fix_post	2		12	40.0	2.5	blank	1.0	220.16517806053162	0.09998202323913574
43	196.85421586036682	fix_pre	0		120	41.0	2.5	/experiments/knapen_AOT/AOT_stimuli/rescaled_final/0464_fw.mp4	0.0	220.26516008377075	1.0001540184020996
43	197.43790483474731	pulse	0	t		41.0	2.5	/experiments/knapen_AOT/AOT_stimuli/rescaled_final/0464_fw.mp4	0.0	220.84884905815125	
43	197.85436987876892	movie	1		243	41.0	2.5	/experiments/knapen_AOT/AOT_stimuli/rescaled_final/0464_fw.mp4	0.0	221.26531410217285	2.5004141330718994
43	199.03827095031738	pulse	1	t		41.0	2.5	/experiments/knapen_AOT/AOT_stimuli/rescaled_final/0464_fw.mp4	0.0	222.4492151737213	
43	200.35478401184082	fix_post	2		12	41.0	2.5	/experiments/knapen_AOT/AOT_stimuli/rescaled_final/0464_fw.mp4	0.0	223.76572823524475	0.10006093978881836
44	200.45484495162964	fix_pre	0		120	42.0	2.5	/experiments/knapen_AOT/AOT_stimuli/rescaled_final/1462_fw.mp4	0.0	223.86578917503357	1.000128984451294
44	200.6383638381958	pulse	0	t		42.0	2.5	/experiments/knapen_AOT/AOT_stimuli/rescaled_final/1462_fw.mp4	0.0	224.04930806159973	
44	201.45497393608093	movie	1		246	42.0	2.5	/experiments/knapen_AOT/AOT_stimuli/rescaled_final/1462_fw.mp4	0.0	224.86591815948486	2.500333070755005
44	202.23853492736816	pulse	1	t		42.0	2.5	/experiments/knapen_AOT/AOT_stimuli/rescaled_final/1462_fw.mp4	0.0	225.6494791507721	
44	203.8387689590454	pulse	1	t		42.0	2.5	/experiments/knapen_AOT/AOT_stimuli/rescaled_final/1462_fw.mp4	0.0	227.24971318244934	
44	203.95530700683594	fix_post	2		12	42.0	2.5	/experiments/knapen_AOT/AOT_stimuli/rescaled_final/1462_fw.mp4	0.0	227.36625123023987	0.09997391700744629
45	204.05528092384338	fix_pre	0		120	43.0	2.5	/experiments/knapen_AOT/AOT_stimuli/rescaled_final/0911_fw.mp4	0.0	227.46622514724731	1.0001449584960938
45	205.05542588233948	movie	1		242	43.0	2.5	/experiments/knapen_AOT/AOT_stimuli/rescaled_final/0911_fw.mp4	0.0	228.4663701057434	2.4920401573181152
45	205.43956685066223	pulse	1	t		43.0	2.5	/experiments/knapen_AOT/AOT_stimuli/rescaled_final/0911_fw.mp4	0.0	228.85051107406616	
45	207.03931403160095	pulse	1	t		43.0	2.5	/experiments/knapen_AOT/AOT_stimuli/rescaled_final/0911_fw.mp4	0.0	230.45025825500488	
45	207.5474660396576	fix_post	2		12	43.0	2.5	/experiments/knapen_AOT/AOT_stimuli/rescaled_final/0911_fw.mp4	0.0	230.95841026306152	0.10004878044128418
46	207.64751482009888	fix_pre	0		120	44.0	2.5	/experiments/knapen_AOT/AOT_stimuli/rescaled_final/1044_rv.mp4	0.0	231.0584590435028	1.0002000331878662
46	208.63950991630554	pulse	0	t		44.0	2.5	/experiments/knapen_AOT/AOT_stimuli/rescaled_final/1044_rv.mp4	0.0	232.05045413970947	
46	208.64771485328674	movie	1		244	44.0	2.5	/experiments/knapen_AOT/AOT_stimuli/rescaled_final/1044_rv.mp4	0.0	232.05865907669067	2.5086991786956787
46	210.2402629852295	pulse	1	t		44.0	2.5	/experiments/knapen_AOT/AOT_stimuli/rescaled_final/1044_rv.mp4	0.0	233.65120720863342	
46	211.15641403198242	fix_post	2		12	44.0	2.5	/experiments/knapen_AOT/AOT_stimuli/rescaled_final/1044_rv.mp4	0.0	234.56735825538635	0.0999298095703125
47	211.25634384155273	fix_pre	0		120	45.0	2.5	/experiments/knapen_AOT/AOT_stimuli/rescaled_final/0229_fw.mp4	0.0	234.66728806495667	1.0001680850982666
47	211.84009385108948	pulse	0	t		45.0	2.5	/experiments/knapen_AOT/AOT_stimuli/rescaled_final/0229_fw.mp4	0.0	235.2510380744934	
47	212.256511926651	movie	1		238	45.0	2.5	/experiments/knapen_AOT/AOT_stimuli/rescaled_final/0229_fw.mp4	0.0	235.66745615005493	2.5005929470062256
47	213.44028091430664	pulse	1	t		45.0	2.5	/experiments/knapen_AOT/AOT_stimuli/rescaled_final/0229_fw.mp4	0.0	236.85122513771057	
47	214.75710487365723	fix_post	2		12	45.0	2.5	/experiments/knapen_AOT/AOT_stimuli/rescaled_final/0229_fw.mp4	0.0	238.16804909706116	0.09984207153320312
48	214.85694694519043	fix_pre	0		120	46.0	2.5	/experiments/knapen_AOT/AOT_stimuli/rescaled_final/1684_rv.mp4	0.0	238.26789116859436	1.0001749992370605
48	215.04047894477844	pulse	0	t		46.0	2.5	/experiments/knapen_AOT/AOT_stimuli/rescaled_final/1684_rv.mp4	0.0	238.45142316818237	
48	215.8571219444275	movie	1		242	46.0	2.5	/experiments/knapen_AOT/AOT_stimuli/rescaled_final/1684_rv.mp4	0.0	239.26806616783142	2.4921839237213135
48	216.64064502716064	pulse	1	t		46.0	2.5	/experiments/knapen_AOT/AOT_stimuli/rescaled_final/1684_rv.mp4	0.0	240.05158925056458	
48	218.2408368587494	pulse	1	t		46.0	2.5	/experiments/knapen_AOT/AOT_stimuli/rescaled_final/1684_rv.mp4	0.0	241.65178108215332	
48	218.3493058681488	fix_post	2		13	46.0	2.5	/experiments/knapen_AOT/AOT_stimuli/rescaled_final/1684_rv.mp4	0.0	241.76025009155273	0.10813117027282715
49	218.45743703842163	fix_pre	0		119	47.0	2.5	blank	1.0	241.86838126182556	0.9918169975280762
49	219.4492540359497	movie	1		300	47.0	2.5	blank	1.0	242.86019825935364	2.5004777908325195
49	219.84129190444946	pulse	1	t		47.0	2.5	blank	1.0	243.2522361278534	
49	221.43415999412537	pulse	1	t		47.0	2.5	blank	1.0	244.8451042175293	
49	221.94973182678223	fix_post	2		12	47.0	2.5	blank	1.0	245.36067605018616	0.09996700286865234
50	222.04969882965088	fix_pre	0		120	48.0	2.5	/experiments/knapen_AOT/AOT_stimuli/rescaled_final/0313_rv.mp4	0.0	245.4606430530548	1.0001330375671387
50	223.0343189239502	pulse	0	t		48.0	2.5	/experiments/knapen_AOT/AOT_stimuli/rescaled_final/0313_rv.mp4	0.0	246.44526314735413	
50	223.04983186721802	movie	1		244	48.0	2.5	/experiments/knapen_AOT/AOT_stimuli/rescaled_final/0313_rv.mp4	0.0	246.46077609062195	2.508730173110962
50	224.64238595962524	pulse	1	t		48.0	2.5	/experiments/knapen_AOT/AOT_stimuli/rescaled_final/0313_rv.mp4	0.0	248.05333018302917	
50	225.55856204032898	fix_post	2		12	48.0	2.5	/experiments/knapen_AOT/AOT_stimuli/rescaled_final/0313_rv.mp4	0.0	248.9695062637329	0.10002279281616211
51	225.65858483314514	fix_pre	0		120	49.0	2.5	/experiments/knapen_AOT/AOT_stimuli/rescaled_final/1531_rv.mp4	0.0	249.06952905654907	1.000133991241455
51	226.2346420288086	pulse	0	t		49.0	2.5	/experiments/knapen_AOT/AOT_stimuli/rescaled_final/1531_rv.mp4	0.0	249.64558625221252	
51	226.6587188243866	movie	1		243	49.0	2.5	/experiments/knapen_AOT/AOT_stimuli/rescaled_final/1531_rv.mp4	0.0	250.06966304779053	2.5005462169647217
51	227.83776903152466	pulse	1	t		49.0	2.5	/experiments/knapen_AOT/AOT_stimuli/rescaled_final/1531_rv.mp4	0.0	251.2487132549286	
51	229.15926504135132	fix_post	2		12	49.0	2.5	/experiments/knapen_AOT/AOT_stimuli/rescaled_final/1531_rv.mp4	0.0	252.57020926475525	0.09982490539550781
52	229.25908994674683	fix_pre	0		120	50.0	2.5	/experiments/knapen_AOT/AOT_stimuli/rescaled_final/1813_fw.mp4	0.0	252.67003417015076	1.000169038772583
52	229.4342029094696	pulse	0	t		50.0	2.5	/experiments/knapen_AOT/AOT_stimuli/rescaled_final/1813_fw.mp4	0.0	252.84514713287354	
52	230.2592589855194	movie	1		242	50.0	2.5	/experiments/knapen_AOT/AOT_stimuli/rescaled_final/1813_fw.mp4	0.0	253.67020320892334	2.4921538829803467
52	231.03446197509766	pulse	1	t		50.0	2.5	/experiments/knapen_AOT/AOT_stimuli/rescaled_final/1813_fw.mp4	0.0	254.4454061985016	
52	232.63470101356506	pulse	1	t		50.0	2.5	/experiments/knapen_AOT/AOT_stimuli/rescaled_final/1813_fw.mp4	0.0	256.045645236969	
52	232.75141286849976	fix_post	2		13	50.0	2.5	/experiments/knapen_AOT/AOT_stimuli/rescaled_final/1813_fw.mp4	0.0	256.1623570919037	0.10818815231323242
53	232.859601020813	fix_pre	0		119	51.0	2.5	/experiments/knapen_AOT/AOT_stimuli/rescaled_final/1466_rv.mp4	0.0	256.2705452442169	0.9917919635772705
53	233.85139298439026	movie	1		242	51.0	2.5	/experiments/knapen_AOT/AOT_stimuli/rescaled_final/1466_rv.mp4	0.0	257.2623372077942	2.5005810260772705
53	234.23534488677979	pulse	1	t		51.0	2.5	/experiments/knapen_AOT/AOT_stimuli/rescaled_final/1466_rv.mp4	0.0	257.6462891101837	
53	235.8353819847107	pulse	1	t		51.0	2.5	/experiments/knapen_AOT/AOT_stimuli/rescaled_final/1466_rv.mp4	0.0	259.2463262081146	
53	236.35197401046753	fix_post	2		12	51.0	2.5	/experiments/knapen_AOT/AOT_stimuli/rescaled_final/1466_rv.mp4	0.0	259.76291823387146	0.09988784790039062
54	236.45186185836792	fix_pre	0		119	52.0	2.5	/experiments/knapen_AOT/AOT_stimuli/rescaled_final/1773_rv.mp4	0.0	259.86280608177185	0.9918041229248047
54	237.43548488616943	pulse	0	t		52.0	2.5	/experiments/knapen_AOT/AOT_stimuli/rescaled_final/1773_rv.mp4	0.0	260.84642910957336	
54	237.44366598129272	movie	1		244	52.0	2.5	/experiments/knapen_AOT/AOT_stimuli/rescaled_final/1773_rv.mp4	0.0	260.85461020469666	2.508739948272705
54	239.03636503219604	pulse	1	t		52.0	2.5	/experiments/knapen_AOT/AOT_stimuli/rescaled_final/1773_rv.mp4	0.0	262.4473092556	
54	239.95240592956543	fix_post	2		12	52.0	2.5	/experiments/knapen_AOT/AOT_stimuli/rescaled_final/1773_rv.mp4	0.0	263.36335015296936	0.09990906715393066
55	240.05231499671936	fix_pre	0		120	53.0	2.5	/experiments/knapen_AOT/AOT_stimuli/rescaled_final/0313_fw.mp4	0.0	263.4632592201233	1.0001418590545654
55	240.63597702980042	pulse	0	t		53.0	2.5	/experiments/knapen_AOT/AOT_stimuli/rescaled_final/0313_fw.mp4	0.0	264.04692125320435	
55	241.05245685577393	movie	1		243	53.0	2.5	/experiments/knapen_AOT/AOT_stimuli/rescaled_final/0313_fw.mp4	0.0	264.46340107917786	2.5005669593811035
55	242.23636889457703	pulse	1	t		53.0	2.5	/experiments/knapen_AOT/AOT_stimuli/rescaled_final/0313_fw.mp4	0.0	265.64731311798096	
55	243.55302381515503	fix_post	2		12	53.0	2.5	/experiments/knapen_AOT/AOT_stimuli/rescaled_final/0313_fw.mp4	0.0	266.96396803855896	0.09988617897033691
56	243.65290999412537	fix_pre	0		120	54.0	2.5	/experiments/knapen_AOT/AOT_stimuli/rescaled_final/1595_fw.mp4	0.0	267.0638542175293	1.0001819133758545
56	243.8365409374237	pulse	0	t		54.0	2.5	/experiments/knapen_AOT/AOT_stimuli/rescaled_final/1595_fw.mp4	0.0	267.24748516082764	
56	244.65309190750122	movie	1		243	54.0	2.5	/experiments/knapen_AOT/AOT_stimuli/rescaled_final/1595_fw.mp4	0.0	268.06403613090515	2.500422954559326
56	245.43662095069885	pulse	1	t		54.0	2.5	/experiments/knapen_AOT/AOT_stimuli/rescaled_final/1595_fw.mp4	0.0	268.8475651741028	
56	247.03673386573792	pulse	1	t		54.0	2.5	/experiments/knapen_AOT/AOT_stimuli/rescaled_final/1595_fw.mp4	0.0	270.44767808914185	
56	247.15351486206055	fix_post	2		12	54.0	2.5	/experiments/knapen_AOT/AOT_stimuli/rescaled_final/1595_fw.mp4	0.0	270.5644590854645	0.09990715980529785
57	247.25342202186584	fix_pre	0		120	55.0	2.5	/experiments/knapen_AOT/AOT_stimuli/rescaled_final/0305_rv.mp4	0.0	270.6643662452698	1.0001349449157715
57	248.25355696678162	movie	1		241	55.0	2.5	/experiments/knapen_AOT/AOT_stimuli/rescaled_final/0305_rv.mp4	0.0	271.66450119018555	2.4920740127563477
57	248.63838386535645	pulse	1	t		55.0	2.5	/experiments/knapen_AOT/AOT_stimuli/rescaled_final/0305_rv.mp4	0.0	272.0493280887604	
57	250.23750495910645	pulse	1	t		55.0	2.5	/experiments/knapen_AOT/AOT_stimuli/rescaled_final/0305_rv.mp4	0.0	273.6484491825104	
57	250.74563097953796	fix_post	2		12	55.0	2.5	/experiments/knapen_AOT/AOT_stimuli/rescaled_final/0305_rv.mp4	0.0	274.1565752029419	0.10001492500305176
58	250.84564590454102	fix_pre	0		120	56.0	2.5	blank	1.0	274.25659012794495	1.0001249313354492
58	251.83762502670288	pulse	0	t		56.0	2.5	blank	1.0	275.2485692501068	
58	251.84577083587646	movie	1		301	56.0	2.5	blank	1.0	275.2567150592804	2.508681058883667
58	253.43790698051453	pulse	1	t		56.0	2.5	blank	1.0	276.84885120391846	
58	254.35445189476013	fix_post	2		12	56.0	2.5	blank	1.0	277.76539611816406	0.10002803802490234
59	254.45447993278503	fix_pre	0		120	57.0	2.5	/experiments/knapen_AOT/AOT_stimuli/rescaled_final/1462_fw.mp4	0.0	277.86542415618896	1.0001449584960938
59	255.03815698623657	pulse	0	t		57.0	2.5	/experiments/knapen_AOT/AOT_stimuli/rescaled_final/1462_fw.mp4	0.0	278.4491012096405	
59	255.45462489128113	movie	1		246	57.0	2.5	/experiments/knapen_AOT/AOT_stimuli/rescaled_final/1462_fw.mp4	0.0	278.86556911468506	2.5004069805145264
59	256.6385078430176	pulse	1	t		57.0	2.5	/experiments/knapen_AOT/AOT_stimuli/rescaled_final/1462_fw.mp4	0.0	280.0494520664215	
59	257.95503187179565	fix_post	2		12	57.0	2.5	/experiments/knapen_AOT/AOT_stimuli/rescaled_final/1462_fw.mp4	0.0	281.3659760951996	0.10004901885986328
60	258.0550808906555	fix_pre	0		120	58.0	2.5	/experiments/knapen_AOT/AOT_stimuli/rescaled_final/0053_fw.mp4	0.0	281.46602511405945	1.0000839233398438
60	258.23865389823914	pulse	0	t		58.0	2.5	/experiments/knapen_AOT/AOT_stimuli/rescaled_final/0053_fw.mp4	0.0	281.64959812164307	
60	259.05516481399536	movie	1		243	58.0	2.5	/experiments/knapen_AOT/AOT_stimuli/rescaled_final/0053_fw.mp4	0.0	282.4661090373993	2.5004591941833496
60	259.8388149738312	pulse	1	t		58.0	2.5	/experiments/knapen_AOT/AOT_stimuli/rescaled_final/0053_fw.mp4	0.0	283.2497591972351	
60	261.4390878677368	pulse	1	t		58.0	2.5	/experiments/knapen_AOT/AOT_stimuli/rescaled_final/0053_fw.mp4	0.0	284.85003209114075	
60	261.5556240081787	fix_post	2		12	58.0	2.5	/experiments/knapen_AOT/AOT_stimuli/rescaled_final/0053_fw.mp4	0.0	284.96656823158264	0.09992694854736328
61	261.6555509567261	fix_pre	0		120	59.0	2.5	/experiments/knapen_AOT/AOT_stimuli/rescaled_final/1945_fw.mp4	0.0	285.06649518013	1.000166893005371
61	262.65571784973145	movie	1		242	59.0	2.5	/experiments/knapen_AOT/AOT_stimuli/rescaled_final/1945_fw.mp4	0.0	286.0666620731354	2.4922540187835693
61	263.0440068244934	pulse	1	t		59.0	2.5	/experiments/knapen_AOT/AOT_stimuli/rescaled_final/1945_fw.mp4	0.0	286.45495104789734	
61	264.63953399658203	pulse	1	t		59.0	2.5	/experiments/knapen_AOT/AOT_stimuli/rescaled_final/1945_fw.mp4	0.0	288.05047821998596	
61	265.147971868515	fix_post	2		12	59.0	2.5	/experiments/knapen_AOT/AOT_stimuli/rescaled_final/1945_fw.mp4	0.0	288.55891609191895	0.0997779369354248
62	265.24774980545044	fix_pre	0		120	60.0	2.5	/experiments/knapen_AOT/AOT_stimuli/rescaled_final/1491_fw.mp4	0.0	288.65869402885437	1.0001511573791504
62	266.2397129535675	pulse	0	t		60.0	2.5	/experiments/knapen_AOT/AOT_stimuli/rescaled_final/1491_fw.mp4	0.0	289.65065717697144	
62	266.2479009628296	movie	1		245	60.0	2.5	/experiments/knapen_AOT/AOT_stimuli/rescaled_final/1491_fw.mp4	0.0	289.6588451862335	2.50876784324646
62	267.8406538963318	pulse	1	t		60.0	2.5	/experiments/knapen_AOT/AOT_stimuli/rescaled_final/1491_fw.mp4	0.0	291.2515981197357	
62	268.75666880607605	fix_post	2		12	60.0	2.5	/experiments/knapen_AOT/AOT_stimuli/rescaled_final/1491_fw.mp4	0.0	292.16761302948	0.09998321533203125
63	268.8566520214081	fix_pre	0		120	61.0	2.5	blank	1.0	292.267596244812	1.000180959701538
63	269.44025897979736	pulse	0	t		61.0	2.5	blank	1.0	292.8512032032013	
63	269.8568329811096	movie	1		300	61.0	2.5	blank	1.0	293.26777720451355	2.500361919403076
63	271.0405738353729	pulse	1	t		61.0	2.5	blank	1.0	294.45151805877686	
63	272.3571949005127	fix_post	2		12	61.0	2.5	blank	1.0	295.7681391239166	0.10001111030578613
64	272.4572060108185	fix_pre	0		120	62.0	2.5	/experiments/knapen_AOT/AOT_stimuli/rescaled_final/1624_fw.mp4	0.0	295.8681502342224	1.0001428127288818
64	272.6407718658447	pulse	0	t		62.0	2.5	/experiments/knapen_AOT/AOT_stimuli/rescaled_final/1624_fw.mp4	0.0	296.05171608924866	
64	273.45734882354736	movie	1		239	62.0	2.5	/experiments/knapen_AOT/AOT_stimuli/rescaled_final/1624_fw.mp4	0.0	296.8682930469513	2.500624179840088
64	274.2337210178375	pulse	1	t		62.0	2.5	/experiments/knapen_AOT/AOT_stimuli/rescaled_final/1624_fw.mp4	0.0	297.64466524124146	
64	275.8413848876953	pulse	1	t		62.0	2.5	/experiments/knapen_AOT/AOT_stimuli/rescaled_final/1624_fw.mp4	0.0	299.25232911109924	
64	275.95797300338745	fix_post	2		12	62.0	2.5	/experiments/knapen_AOT/AOT_stimuli/rescaled_final/1624_fw.mp4	0.0	299.3689172267914	0.09975695610046387
65	276.0577299594879	fix_pre	0		120	63.0	2.5	/experiments/knapen_AOT/AOT_stimuli/rescaled_final/0025_fw.mp4	0.0	299.46867418289185	1.0001590251922607
65	277.0578889846802	movie	1		242	63.0	2.5	/experiments/knapen_AOT/AOT_stimuli/rescaled_final/0025_fw.mp4	0.0	300.4688332080841	2.4922099113464355
65	277.4420208930969	pulse	1	t		63.0	2.5	/experiments/knapen_AOT/AOT_stimuli/rescaled_final/0025_fw.mp4	0.0	300.85296511650085	
65	279.03430700302124	pulse	1	t		63.0	2.5	/experiments/knapen_AOT/AOT_stimuli/rescaled_final/0025_fw.mp4	0.0	302.44525122642517	
65	279.5500988960266	fix_post	2		12	63.0	2.5	/experiments/knapen_AOT/AOT_stimuli/rescaled_final/0025_fw.mp4	0.0	302.96104311943054	0.09985899925231934
66	279.64995789527893	fix_pre	0		120	64.0	2.5	/experiments/knapen_AOT/AOT_stimuli/rescaled_final/1224_rv.mp4	0.0	303.06090211868286	1.000108003616333
66	280.63433504104614	pulse	0	t		64.0	2.5	/experiments/knapen_AOT/AOT_stimuli/rescaled_final/1224_rv.mp4	0.0	304.0452792644501	
66	280.65006589889526	movie	1		244	64.0	2.5	/experiments/knapen_AOT/AOT_stimuli/rescaled_final/1224_rv.mp4	0.0	304.0610101222992	2.508759021759033
66	282.23382782936096	pulse	1	t		64.0	2.5	/experiments/knapen_AOT/AOT_stimuli/rescaled_final/1224_rv.mp4	0.0	305.6447720527649	
66	283.1588249206543	fix_post	2		12	64.0	2.5	/experiments/knapen_AOT/AOT_stimuli/rescaled_final/1224_rv.mp4	0.0	306.5697691440582	0.09999799728393555
67	283.25882291793823	fix_pre	0		120	65.0	2.5	/experiments/knapen_AOT/AOT_stimuli/rescaled_final/0289_fw.mp4	0.0	306.66976714134216	1.0001180171966553
67	283.83401584625244	pulse	0	t		65.0	2.5	/experiments/knapen_AOT/AOT_stimuli/rescaled_final/0289_fw.mp4	0.0	307.2449600696564	
67	284.2589409351349	movie	1		244	65.0	2.5	/experiments/knapen_AOT/AOT_stimuli/rescaled_final/0289_fw.mp4	0.0	307.6698851585388	2.5003790855407715
67	285.4354758262634	pulse	1	t		65.0	2.5	/experiments/knapen_AOT/AOT_stimuli/rescaled_final/0289_fw.mp4	0.0	308.84642004966736	
67	286.75932002067566	fix_post	2		12	65.0	2.5	/experiments/knapen_AOT/AOT_stimuli/rescaled_final/0289_fw.mp4	0.0	310.1702642440796	0.09999680519104004
68	286.8593168258667	fix_pre	0		120	66.0	2.5	/experiments/knapen_AOT/AOT_stimuli/rescaled_final/0396_fw.mp4	0.0	310.27026104927063	1.0001490116119385
68	287.03447699546814	pulse	0	t		66.0	2.5	/experiments/knapen_AOT/AOT_stimuli/rescaled_final/0396_fw.mp4	0.0	310.44542121887207	
68	287.85946583747864	movie	1		242	66.0	2.5	/experiments/knapen_AOT/AOT_stimuli/rescaled_final/0396_fw.mp4	0.0	311.27041006088257	2.4921011924743652
68	288.6348719596863	pulse	1	t		66.0	2.5	/experiments/knapen_AOT/AOT_stimuli/rescaled_final/0396_fw.mp4	0.0	312.0458161830902	
68	290.23515486717224	pulse	1	t		66.0	2.5	/experiments/knapen_AOT/AOT_stimuli/rescaled_final/0396_fw.mp4	0.0	313.6460990905762	
68	290.351567029953	fix_post	2		13	66.0	2.5	/experiments/knapen_AOT/AOT_stimuli/rescaled_final/0396_fw.mp4	0.0	313.76251125335693	0.1083228588104248
69	290.4598898887634	fix_pre	0		119	67.0	2.5	/experiments/knapen_AOT/AOT_stimuli/rescaled_final/0869_rv.mp4	0.0	313.87083411216736	0.9918379783630371
69	291.45172786712646	movie	1		243	67.0	2.5	/experiments/knapen_AOT/AOT_stimuli/rescaled_final/0869_rv.mp4	0.0	314.8626720905304	2.5004489421844482
69	291.8357729911804	pulse	1	t		67.0	2.5	/experiments/knapen_AOT/AOT_stimuli/rescaled_final/0869_rv.mp4	0.0	315.24671721458435	
69	293.4355230331421	pulse	1	t		67.0	2.5	/experiments/knapen_AOT/AOT_stimuli/rescaled_final/0869_rv.mp4	0.0	316.846467256546	
69	293.9521768093109	fix_post	2		12	67.0	2.5	/experiments/knapen_AOT/AOT_stimuli/rescaled_final/0869_rv.mp4	0.0	317.36312103271484	0.09992504119873047
70	294.05210185050964	fix_pre	0		119	68.0	2.5	/experiments/knapen_AOT/AOT_stimuli/rescaled_final/0649_rv.mp4	0.0	317.4630460739136	0.991847038269043
70	295.03577303886414	pulse	0	t		68.0	2.5	/experiments/knapen_AOT/AOT_stimuli/rescaled_final/0649_rv.mp4	0.0	318.44671726226807	
70	295.0439488887787	movie	1		244	68.0	2.5	/experiments/knapen_AOT/AOT_stimuli/rescaled_final/0649_rv.mp4	0.0	318.4548931121826	2.5087080001831055
70	296.63640689849854	pulse	1	t		68.0	2.5	/experiments/knapen_AOT/AOT_stimuli/rescaled_final/0649_rv.mp4	0.0	320.04735112190247	
70	297.5526568889618	fix_post	2		12	68.0	2.5	/experiments/knapen_AOT/AOT_stimuli/rescaled_final/0649_rv.mp4	0.0	320.9636011123657	0.10000014305114746
71	297.65265703201294	fix_pre	0		120	69.0	2.5	/experiments/knapen_AOT/AOT_stimuli/rescaled_final/1734_rv.mp4	0.0	321.06360125541687	1.000114917755127
71	298.2363178730011	pulse	0	t		69.0	2.5	/experiments/knapen_AOT/AOT_stimuli/rescaled_final/1734_rv.mp4	0.0	321.64726209640503	
71	298.65277194976807	movie	1		242	69.0	2.5	/experiments/knapen_AOT/AOT_stimuli/rescaled_final/1734_rv.mp4	0.0	322.063716173172	2.500576972961426
71	299.83652782440186	pulse	1	t		69.0	2.5	/experiments/knapen_AOT/AOT_stimuli/rescaled_final/1734_rv.mp4	0.0	323.2474720478058	
71	301.1533489227295	fix_post	2		12	69.0	2.5	/experiments/knapen_AOT/AOT_stimuli/rescaled_final/1734_rv.mp4	0.0	324.5642931461334	0.09980511665344238
72	301.25315403938293	fix_pre	0		120	70.0	2.5	blank	1.0	324.66409826278687	1.000135898590088
72	301.43662095069885	pulse	0	t		70.0	2.5	blank	1.0	324.8475651741028	
72	302.253289937973	movie	1		300	70.0	2.5	blank	1.0	325.66423416137695	2.500401020050049
72	303.03701996803284	pulse	1	t		70.0	2.5	blank	1.0	326.44796419143677	
72	304.63726687431335	pulse	1	t		70.0	2.5	blank	1.0	328.0482110977173	
72	304.75369095802307	fix_post	2		12	70.0	2.5	blank	1.0	328.164635181427	0.10004806518554688
73	304.8537390232086	fix_pre	0		120	71.0	2.5	/experiments/knapen_AOT/AOT_stimuli/rescaled_final/0028_rv.mp4	0.0	328.26468324661255	1.0001559257507324
73	305.85389494895935	movie	1		241	71.0	2.5	/experiments/knapen_AOT/AOT_stimuli/rescaled_final/0028_rv.mp4	0.0	329.2648391723633	2.492151975631714
73	306.2380328178406	pulse	1	t		71.0	2.5	/experiments/knapen_AOT/AOT_stimuli/rescaled_final/0028_rv.mp4	0.0	329.6489770412445	
73	307.83760690689087	pulse	1	t		71.0	2.5	/experiments/knapen_AOT/AOT_stimuli/rescaled_final/0028_rv.mp4	0.0	331.2485511302948	
73	308.34604692459106	fix_post	2		12	71.0	2.5	/experiments/knapen_AOT/AOT_stimuli/rescaled_final/0028_rv.mp4	0.0	331.756991147995	0.09989404678344727
74	308.4459409713745	fix_pre	0		120	72.0	2.5	/experiments/knapen_AOT/AOT_stimuli/rescaled_final/0736_rv.mp4	0.0	331.85688519477844	1.0001299381256104
74	309.4379608631134	pulse	0	t		72.0	2.5	/experiments/knapen_AOT/AOT_stimuli/rescaled_final/0736_rv.mp4	0.0	332.84890508651733	
74	309.4460709095001	movie	1		244	72.0	2.5	/experiments/knapen_AOT/AOT_stimuli/rescaled_final/0736_rv.mp4	0.0	332.85701513290405	2.5087950229644775
74	311.039391040802	pulse	1	t		72.0	2.5	/experiments/knapen_AOT/AOT_stimuli/rescaled_final/0736_rv.mp4	0.0	334.45033526420593	
74	311.9548659324646	fix_post	2		12	72.0	2.5	/experiments/knapen_AOT/AOT_stimuli/rescaled_final/0736_rv.mp4	0.0	335.36581015586853	0.0999150276184082
75	312.054780960083	fix_pre	0		120	73.0	2.5	/experiments/knapen_AOT/AOT_stimuli/rescaled_final/0877_fw.mp4	0.0	335.46572518348694	1.000190019607544
75	312.6384518146515	pulse	0	t		73.0	2.5	/experiments/knapen_AOT/AOT_stimuli/rescaled_final/0877_fw.mp4	0.0	336.0493960380554	
75	313.05497097969055	movie	1		243	73.0	2.5	/experiments/knapen_AOT/AOT_stimuli/rescaled_final/0877_fw.mp4	0.0	336.4659152030945	2.5004680156707764
75	314.2387249469757	pulse	1	t		73.0	2.5	/experiments/knapen_AOT/AOT_stimuli/rescaled_final/0877_fw.mp4	0.0	337.64966917037964	
75	315.5554389953613	fix_post	2		12	73.0	2.5	/experiments/knapen_AOT/AOT_stimuli/rescaled_final/0877_fw.mp4	0.0	338.96638321876526	0.09988594055175781
76	315.6553249359131	fix_pre	0		120	74.0	2.5	/experiments/knapen_AOT/AOT_stimuli/rescaled_final/1743_rv.mp4	0.0	339.066269159317	1.0001258850097656
76	315.8388509750366	pulse	0	t		74.0	2.5	/experiments/knapen_AOT/AOT_stimuli/rescaled_final/1743_rv.mp4	0.0	339.24979519844055	
76	316.65545082092285	movie	1		242	74.0	2.5	/experiments/knapen_AOT/AOT_stimuli/rescaled_final/1743_rv.mp4	0.0	340.0663950443268	2.5004680156707764
76	317.43913984298706	pulse	1	t		74.0	2.5	/experiments/knapen_AOT/AOT_stimuli/rescaled_final/1743_rv.mp4	0.0	340.850084066391	
76	319.03929901123047	pulse	1	t		74.0	2.5	/experiments/knapen_AOT/AOT_stimuli/rescaled_final/1743_rv.mp4	0.0	342.4502432346344	
76	319.1559188365936	fix_post	2		12	74.0	2.5	/experiments/knapen_AOT/AOT_stimuli/rescaled_final/1743_rv.mp4	0.0	342.56686305999756	0.09995603561401367
77	319.25587487220764	fix_pre	0		120	75.0	2.5	/experiments/knapen_AOT/AOT_stimuli/rescaled_final/0313_fw.mp4	0.0	342.6668190956116	1.0001399517059326
77	320.2560148239136	movie	1		242	75.0	2.5	/experiments/knapen_AOT/AOT_stimuli/rescaled_final/0313_fw.mp4	0.0	343.6669590473175	2.4920411109924316
77	320.6402039527893	pulse	1	t		75.0	2.5	/experiments/knapen_AOT/AOT_stimuli/rescaled_final/0313_fw.mp4	0.0	344.05114817619324	
77	322.23979687690735	pulse	1	t		75.0	2.5	/experiments/knapen_AOT/AOT_stimuli/rescaled_final/0313_fw.mp4	0.0	345.6507411003113	
77	322.748055934906	fix_post	2		12	75.0	2.5	/experiments/knapen_AOT/AOT_stimuli/rescaled_final/0313_fw.mp4	0.0	346.15900015830994	0.1000208854675293
78	322.84807682037354	fix_pre	0		120	76.0	2.5	/experiments/knapen_AOT/AOT_stimuli/rescaled_final/0557_rv.mp4	0.0	346.25902104377747	1.0001161098480225
78	323.8401198387146	pulse	0	t		76.0	2.5	/experiments/knapen_AOT/AOT_stimuli/rescaled_final/0557_rv.mp4	0.0	347.25106406211853	
78	323.84819293022156	movie	1		244	76.0	2.5	/experiments/knapen_AOT/AOT_stimuli/rescaled_final/0557_rv.mp4	0.0	347.2591371536255	2.5087029933929443
78	325.44087290763855	pulse	1	t		76.0	2.5	/experiments/knapen_AOT/AOT_stimuli/rescaled_final/0557_rv.mp4	0.0	348.8518171310425	
78	326.3568959236145	fix_post	2		12	76.0	2.5	/experiments/knapen_AOT/AOT_stimuli/rescaled_final/0557_rv.mp4	0.0	349.76784014701843	0.10003995895385742
79	326.45693588256836	fix_pre	0		120	77.0	2.5	blank	1.0	349.8678801059723	1.000133991241455
79	327.0404989719391	pulse	0	t		77.0	2.5	blank	1.0	350.451443195343	
79	327.4570698738098	movie	1		300	77.0	2.5	blank	1.0	350.86801409721375	2.5003421306610107
79	328.64079093933105	pulse	1	t		77.0	2.5	blank	1.0	352.051735162735	
79	329.9574120044708	fix_post	2		12	77.0	2.5	blank	1.0	353.36835622787476	0.1000368595123291
80	330.05744886398315	fix_pre	0		120	78.0	2.5	/experiments/knapen_AOT/AOT_stimuli/rescaled_final/0338_rv.mp4	0.0	353.4683930873871	1.0001471042633057
80	330.2409620285034	pulse	0	t		78.0	2.5	/experiments/knapen_AOT/AOT_stimuli/rescaled_final/0338_rv.mp4	0.0	353.65190625190735	
80	331.05759596824646	movie	1		243	78.0	2.5	/experiments/knapen_AOT/AOT_stimuli/rescaled_final/0338_rv.mp4	0.0	354.4685401916504	2.5004119873046875
80	331.8413419723511	pulse	1	t		78.0	2.5	/experiments/knapen_AOT/AOT_stimuli/rescaled_final/0338_rv.mp4	0.0	355.252286195755	
80	333.44116497039795	pulse	1	t		78.0	2.5	/experiments/knapen_AOT/AOT_stimuli/rescaled_final/0338_rv.mp4	0.0	356.8521091938019	
80	333.55800795555115	fix_post	2		12	78.0	2.5	/experiments/knapen_AOT/AOT_stimuli/rescaled_final/0338_rv.mp4	0.0	356.9689521789551	0.10000395774841309
81	333.65801191329956	fix_pre	0		120	79.0	2.5	/experiments/knapen_AOT/AOT_stimuli/rescaled_final/0002_fw.mp4	0.0	357.0689561367035	1.000195026397705
81	334.65820693969727	movie	1		238	79.0	2.5	/experiments/knapen_AOT/AOT_stimuli/rescaled_final/0002_fw.mp4	0.0	358.0691511631012	2.492141008377075
81	335.0424098968506	pulse	1	t		79.0	2.5	/experiments/knapen_AOT/AOT_stimuli/rescaled_final/0002_fw.mp4	0.0	358.4533541202545	
81	336.6346609592438	pulse	1	t		79.0	2.5	/experiments/knapen_AOT/AOT_stimuli/rescaled_final/0002_fw.mp4	0.0	360.0456051826477	
81	337.15034794807434	fix_post	2		12	79.0	2.5	/experiments/knapen_AOT/AOT_stimuli/rescaled_final/0002_fw.mp4	0.0	360.56129217147827	0.09984493255615234
82	337.2501928806305	fix_pre	0		120	80.0	2.5	/experiments/knapen_AOT/AOT_stimuli/rescaled_final/0522_rv.mp4	0.0	360.6611371040344	1.000148057937622
82	338.23484992980957	pulse	0	t		80.0	2.5	/experiments/knapen_AOT/AOT_stimuli/rescaled_final/0522_rv.mp4	0.0	361.6457941532135	
82	338.2503409385681	movie	1		244	80.0	2.5	/experiments/knapen_AOT/AOT_stimuli/rescaled_final/0522_rv.mp4	0.0	361.66128516197205	2.508815050125122
82	339.8434429168701	pulse	1	t		80.0	2.5	/experiments/knapen_AOT/AOT_stimuli/rescaled_final/0522_rv.mp4	0.0	363.25438714027405	
82	340.75915598869324	fix_post	2		12	80.0	2.5	/experiments/knapen_AOT/AOT_stimuli/rescaled_final/0522_rv.mp4	0.0	364.17010021209717	0.09995794296264648
83	340.8591139316559	fix_pre	0		120	81.0	2.5	/experiments/knapen_AOT/AOT_stimuli/rescaled_final/0129_fw.mp4	0.0	364.2700581550598	1.0001170635223389
83	341.4350929260254	pulse	0	t		81.0	2.5	/experiments/knapen_AOT/AOT_stimuli/rescaled_final/0129_fw.mp4	0.0	364.8460371494293	
83	341.8592309951782	movie	1		242	81.0	2.5	/experiments/knapen_AOT/AOT_stimuli/rescaled_final/0129_fw.mp4	0.0	365.27017521858215	2.500501871109009
83	343.03514885902405	pulse	1	t		81.0	2.5	/experiments/knapen_AOT/AOT_stimuli/rescaled_final/0129_fw.mp4	0.0	366.446093082428	
83	344.35973286628723	fix_post	2		12	81.0	2.5	/experiments/knapen_AOT/AOT_stimuli/rescaled_final/0129_fw.mp4	0.0	367.77067708969116	0.09993910789489746
84	344.45967197418213	fix_pre	0		120	82.0	2.5	/experiments/knapen_AOT/AOT_stimuli/rescaled_final/1761_fw.mp4	0.0	367.87061619758606	1.0000510215759277
84	344.634712934494	pulse	0	t		82.0	2.5	/experiments/knapen_AOT/AOT_stimuli/rescaled_final/1761_fw.mp4	0.0	368.04565715789795	
84	345.45972299575806	movie	1		243	82.0	2.5	/experiments/knapen_AOT/AOT_stimuli/rescaled_final/1761_fw.mp4	0.0	368.870667219162	2.500476837158203
84	346.2350399494171	pulse	1	t		82.0	2.5	/experiments/knapen_AOT/AOT_stimuli/rescaled_final/1761_fw.mp4	0.0	369.64598417282104	
84	347.8354048728943	pulse	1	t		82.0	2.5	/experiments/knapen_AOT/AOT_stimuli/rescaled_final/1761_fw.mp4	0.0	371.2463490962982	
84	347.96019983291626	fix_post	2		12	82.0	2.5	/experiments/knapen_AOT/AOT_stimuli/rescaled_final/1761_fw.mp4	0.0	371.3711440563202	0.09995603561401367
85	348.0601558685303	fix_pre	0		119	83.0	2.5	blank	1.0	371.4711000919342	0.9918169975280762
85	349.05197286605835	movie	1		300	83.0	2.5	blank	1.0	372.4629170894623	2.5003631114959717
85	349.4355139732361	pulse	1	t		83.0	2.5	blank	1.0	372.84645819664	
85	351.0357518196106	pulse	1	t		83.0	2.5	blank	1.0	374.4466960430145	
85	351.5523359775543	fix_post	2		12	83.0	2.5	blank	1.0	374.96328020095825	0.09998393058776855
87	351.6523199081421	stim	0		1716					375.063264131546	14.3021399974823
87	352.63598680496216	pulse	0	t						376.0469310283661	
87	354.2361538410187	pulse	0	t						377.6470980644226	
87	355.8364279270172	pulse	0	t						379.24737215042114	
87	357.4366798400879	pulse	0	t						380.8476240634918	
87	359.03696393966675	pulse	0	t						382.4479081630707	
87	360.63720893859863	pulse	0	t						384.04815316200256	
87	362.2373960018158	pulse	0	t						385.6483402252197	
87	363.8375868797302	pulse	0	t						387.24853110313416	
87	365.4379208087921	pulse	0	t						388.84886503219604	
