trial_nr	onset	event_type	phase	response	nr_frames	movie_index	movie_duration	movie_file	blank	onset_abs	duration
0	0.1999800205230713	stim	0		74					18.25596022605896	0.6333439350128174
0	0.8254609107971191	response	0	space						18.881441116333008	
1	0.8333239555358887	stim	0		4930					18.889304161071777	41.09803223609924
1	41.9217803478241	pulse	0	t						59.977760553359985	
1	41.93135619163513	stim	1		1717					59.98733639717102	14.310282468795776
1	43.51495671272278	pulse	1	t						61.57093691825867	
1	45.11508774757385	pulse	1	t						63.17106795310974	
1	46.7074339389801	pulse	1	t						64.76341414451599	
1	48.30880165100098	pulse	1	t						66.36478185653687	
1	49.90756821632385	pulse	1	t						67.96354842185974	
1	51.50788068771362	pulse	1	t						69.56386089324951	
1	53.10802698135376	pulse	1	t						71.16400718688965	
1	54.7082314491272	pulse	1	t						72.76421165466309	
2	56.24163866043091	fix_pre	0		5	0.0	2.5	/experiments/knapen_AOT/AOT_stimuli/rescaled_final/0814_rv.mp4	0.0	74.2976188659668	0.13346648216247559
2	56.308470487594604	pulse	0	t		0.0	2.5	/experiments/knapen_AOT/AOT_stimuli/rescaled_final/0814_rv.mp4	0.0	74.3644506931305	
2	56.375105142593384	movie	1		294	0.0	2.5	/experiments/knapen_AOT/AOT_stimuli/rescaled_final/0814_rv.mp4	0.0	74.43108534812927	2.4585940837860107
2	57.908726930618286	pulse	1	t		0.0	2.5	/experiments/knapen_AOT/AOT_stimuli/rescaled_final/0814_rv.mp4	0.0	75.96470713615417	
2	58.833699226379395	fix_post	2		12	0.0	2.5	/experiments/knapen_AOT/AOT_stimuli/rescaled_final/0814_rv.mp4	0.0	76.88967943191528	0.09999966621398926
3	58.933698892593384	fix_pre	0		120	1.0	2.5	/experiments/knapen_AOT/AOT_stimuli/rescaled_final/0963_fw.mp4	0.0	76.98967909812927	1.0085029602050781
3	59.50901532173157	pulse	0	t		1.0	2.5	/experiments/knapen_AOT/AOT_stimuli/rescaled_final/0963_fw.mp4	0.0	77.56499552726746	
3	59.94220185279846	movie	1		294	1.0	2.5	/experiments/knapen_AOT/AOT_stimuli/rescaled_final/0963_fw.mp4	0.0	77.99818205833435	2.4920144081115723
3	61.109288692474365	pulse	1	t		1.0	2.5	/experiments/knapen_AOT/AOT_stimuli/rescaled_final/0963_fw.mp4	0.0	79.16526889801025	
3	62.434216260910034	fix_post	2		12	1.0	2.5	/experiments/knapen_AOT/AOT_stimuli/rescaled_final/0963_fw.mp4	0.0	80.49019646644592	0.10000395774841309
4	62.53422021865845	fix_pre	0		120	2.0	2.5	/experiments/knapen_AOT/AOT_stimuli/rescaled_final/0394_rv.mp4	0.0	80.59020042419434	1.000115156173706
4	62.709503173828125	pulse	0	t		2.0	2.5	/experiments/knapen_AOT/AOT_stimuli/rescaled_final/0394_rv.mp4	0.0	80.76548337936401	
4	63.53433537483215	movie	1		299	2.0	2.5	/experiments/knapen_AOT/AOT_stimuli/rescaled_final/0394_rv.mp4	0.0	81.59031558036804	2.5004472732543945
4	64.30961060523987	pulse	1	t		2.0	2.5	/experiments/knapen_AOT/AOT_stimuli/rescaled_final/0394_rv.mp4	0.0	82.36559081077576	
4	65.90991616249084	pulse	1	t		2.0	2.5	/experiments/knapen_AOT/AOT_stimuli/rescaled_final/0394_rv.mp4	0.0	83.96589636802673	
4	66.03478264808655	fix_post	2		12	2.0	2.5	/experiments/knapen_AOT/AOT_stimuli/rescaled_final/0394_rv.mp4	0.0	84.09076285362244	0.10005807876586914
5	66.13484072685242	fix_pre	0		120	3.0	2.5	/experiments/knapen_AOT/AOT_stimuli/rescaled_final/1467_rv.mp4	0.0	84.1908209323883	1.0001144409179688
5	67.13495516777039	movie	1		298	3.0	2.5	/experiments/knapen_AOT/AOT_stimuli/rescaled_final/1467_rv.mp4	0.0	85.19093537330627	2.500378131866455
5	67.50838804244995	pulse	1	t		3.0	2.5	/experiments/knapen_AOT/AOT_stimuli/rescaled_final/1467_rv.mp4	0.0	85.56436824798584	
5	69.11038708686829	pulse	1	t		3.0	2.5	/experiments/knapen_AOT/AOT_stimuli/rescaled_final/1467_rv.mp4	0.0	87.16636729240417	
5	69.63533329963684	fix_post	2		12	3.0	2.5	/experiments/knapen_AOT/AOT_stimuli/rescaled_final/1467_rv.mp4	0.0	87.69131350517273	0.10008478164672852
6	69.73541808128357	fix_pre	0		118	4.0	2.5	/experiments/knapen_AOT/AOT_stimuli/rescaled_final/1476_fw.mp4	0.0	87.79139828681946	0.9917492866516113
6	70.71063804626465	pulse	0	t		4.0	2.5	/experiments/knapen_AOT/AOT_stimuli/rescaled_final/1476_fw.mp4	0.0	88.76661825180054	
6	70.72716736793518	movie	1		299	4.0	2.5	/experiments/knapen_AOT/AOT_stimuli/rescaled_final/1476_fw.mp4	0.0	88.78314757347107	2.5003857612609863
6	72.31102538108826	pulse	1	t		4.0	2.5	/experiments/knapen_AOT/AOT_stimuli/rescaled_final/1476_fw.mp4	0.0	90.36700558662415	
6	73.22755312919617	fix_post	2		12	4.0	2.5	/experiments/knapen_AOT/AOT_stimuli/rescaled_final/1476_fw.mp4	0.0	91.28353333473206	0.09999656677246094
7	73.32754969596863	fix_pre	0		120	5.0	2.5	blank	1.0	91.38352990150452	1.0001263618469238
7	73.91109299659729	pulse	0	t		5.0	2.5	blank	1.0	91.96707320213318	
7	74.32767605781555	movie	1		300	5.0	2.5	blank	1.0	92.38365626335144	2.5003981590270996
7	75.51131772994995	pulse	1	t		5.0	2.5	blank	1.0	93.56729793548584	
7	76.82807421684265	fix_post	2		12	5.0	2.5	blank	1.0	94.88405442237854	0.09997749328613281
8	76.92805171012878	fix_pre	0		120	6.0	2.5	/experiments/knapen_AOT/AOT_stimuli/rescaled_final/0453_fw.mp4	0.0	94.98403191566467	1.0085923671722412
8	77.11157870292664	pulse	0	t		6.0	2.5	/experiments/knapen_AOT/AOT_stimuli/rescaled_final/0453_fw.mp4	0.0	95.16755890846252	
8	77.93664407730103	movie	1		288	6.0	2.5	/experiments/knapen_AOT/AOT_stimuli/rescaled_final/0453_fw.mp4	0.0	95.99262428283691	2.4919626712799072
8	78.71183753013611	pulse	1	t		6.0	2.5	/experiments/knapen_AOT/AOT_stimuli/rescaled_final/0453_fw.mp4	0.0	96.767817735672	
8	80.31202006340027	pulse	1	t		6.0	2.5	/experiments/knapen_AOT/AOT_stimuli/rescaled_final/0453_fw.mp4	0.0	98.36800026893616	
8	80.42860674858093	fix_post	2		12	6.0	2.5	/experiments/knapen_AOT/AOT_stimuli/rescaled_final/0453_fw.mp4	0.0	98.48458695411682	0.09999775886535645
9	80.52860450744629	fix_pre	0		120	7.0	2.5	/experiments/knapen_AOT/AOT_stimuli/rescaled_final/0019_rv.mp4	0.0	98.58458471298218	1.0001318454742432
9	81.52873635292053	movie	1		295	7.0	2.5	/experiments/knapen_AOT/AOT_stimuli/rescaled_final/0019_rv.mp4	0.0	99.58471655845642	2.500413179397583
9	81.90826654434204	pulse	1	t		7.0	2.5	/experiments/knapen_AOT/AOT_stimuli/rescaled_final/0019_rv.mp4	0.0	99.96424674987793	
9	83.50796389579773	pulse	1	t		7.0	2.5	/experiments/knapen_AOT/AOT_stimuli/rescaled_final/0019_rv.mp4	0.0	101.56394410133362	
9	84.02914953231812	fix_post	2		12	7.0	2.5	/experiments/knapen_AOT/AOT_stimuli/rescaled_final/0019_rv.mp4	0.0	102.085129737854	0.10000348091125488
10	84.12915301322937	fix_pre	0		119	8.0	2.5	/experiments/knapen_AOT/AOT_stimuli/rescaled_final/0125_fw.mp4	0.0	102.18513321876526	1.000182867050171
10	85.11279058456421	pulse	0	t		8.0	2.5	/experiments/knapen_AOT/AOT_stimuli/rescaled_final/0125_fw.mp4	0.0	103.1687707901001	
10	85.12933588027954	movie	1		300	8.0	2.5	/experiments/knapen_AOT/AOT_stimuli/rescaled_final/0125_fw.mp4	0.0	103.18531608581543	2.5003507137298584
10	86.70986199378967	pulse	1	t		8.0	2.5	/experiments/knapen_AOT/AOT_stimuli/rescaled_final/0125_fw.mp4	0.0	104.76584219932556	
10	87.6296865940094	fix_post	2		12	8.0	2.5	/experiments/knapen_AOT/AOT_stimuli/rescaled_final/0125_fw.mp4	0.0	105.68566679954529	0.10001516342163086
11	87.72970175743103	fix_pre	0		120	9.0	2.5	/experiments/knapen_AOT/AOT_stimuli/rescaled_final/1940_rv.mp4	0.0	105.78568196296692	1.0001506805419922
11	88.31328058242798	pulse	0	t		9.0	2.5	/experiments/knapen_AOT/AOT_stimuli/rescaled_final/1940_rv.mp4	0.0	106.36926078796387	
11	88.72985243797302	movie	1		293	9.0	2.5	/experiments/knapen_AOT/AOT_stimuli/rescaled_final/1940_rv.mp4	0.0	106.78583264350891	2.500363826751709
11	89.90915966033936	pulse	1	t		9.0	2.5	/experiments/knapen_AOT/AOT_stimuli/rescaled_final/1940_rv.mp4	0.0	107.96513986587524	
11	91.23021626472473	fix_post	2		12	9.0	2.5	/experiments/knapen_AOT/AOT_stimuli/rescaled_final/1940_rv.mp4	0.0	109.28619647026062	0.10000991821289062
12	91.33022618293762	fix_pre	0		120	10.0	2.5	/experiments/knapen_AOT/AOT_stimuli/rescaled_final/0516_fw.mp4	0.0	109.38620638847351	1.008500099182129
12	91.5137586593628	pulse	0	t		10.0	2.5	/experiments/knapen_AOT/AOT_stimuli/rescaled_final/0516_fw.mp4	0.0	109.56973886489868	
12	92.33872628211975	movie	1		294	10.0	2.5	/experiments/knapen_AOT/AOT_stimuli/rescaled_final/0516_fw.mp4	0.0	110.39470648765564	2.4920296669006348
12	93.10959434509277	pulse	1	t		10.0	2.5	/experiments/knapen_AOT/AOT_stimuli/rescaled_final/0516_fw.mp4	0.0	111.16557455062866	
12	94.70973539352417	pulse	1	t		10.0	2.5	/experiments/knapen_AOT/AOT_stimuli/rescaled_final/0516_fw.mp4	0.0	112.76571559906006	
12	94.83075594902039	fix_post	2		12	10.0	2.5	/experiments/knapen_AOT/AOT_stimuli/rescaled_final/0516_fw.mp4	0.0	112.88673615455627	0.1000058650970459
13	94.93076181411743	fix_pre	0		120	11.0	2.5	/experiments/knapen_AOT/AOT_stimuli/rescaled_final/0044_rv.mp4	0.0	112.98674201965332	1.0004546642303467
13	95.93121647834778	movie	1		298	11.0	2.5	/experiments/knapen_AOT/AOT_stimuli/rescaled_final/0044_rv.mp4	0.0	113.98719668388367	2.500094413757324
13	96.31055355072021	pulse	1	t		11.0	2.5	/experiments/knapen_AOT/AOT_stimuli/rescaled_final/0044_rv.mp4	0.0	114.3665337562561	
13	97.91244387626648	pulse	1	t		11.0	2.5	/experiments/knapen_AOT/AOT_stimuli/rescaled_final/0044_rv.mp4	0.0	115.96842408180237	
13	98.4313108921051	fix_post	2		12	11.0	2.5	/experiments/knapen_AOT/AOT_stimuli/rescaled_final/0044_rv.mp4	0.0	116.48729109764099	0.10004901885986328
14	98.53135991096497	fix_pre	0		119	12.0	2.5	blank	1.0	116.58734011650085	0.9917764663696289
14	99.51494836807251	pulse	0	t		12.0	2.5	blank	1.0	117.5709285736084	
14	99.5231363773346	movie	1		301	12.0	2.5	blank	1.0	117.57911658287048	2.5087392330169678
14	101.11526274681091	pulse	1	t		12.0	2.5	blank	1.0	119.1712429523468	
14	102.03187561035156	fix_post	2		12	12.0	2.5	blank	1.0	120.08785581588745	0.10007500648498535
15	102.13195061683655	fix_pre	0		120	13.0	2.5	/experiments/knapen_AOT/AOT_stimuli/rescaled_final/0469_fw.mp4	0.0	120.18793082237244	1.008422613143921
15	102.71550250053406	pulse	0	t		13.0	2.5	/experiments/knapen_AOT/AOT_stimuli/rescaled_final/0469_fw.mp4	0.0	120.77148270606995	
15	103.14037322998047	movie	1		295	13.0	2.5	/experiments/knapen_AOT/AOT_stimuli/rescaled_final/0469_fw.mp4	0.0	121.19635343551636	2.492020606994629
15	104.31142449378967	pulse	1	t		13.0	2.5	/experiments/knapen_AOT/AOT_stimuli/rescaled_final/0469_fw.mp4	0.0	122.36740469932556	
15	105.6323938369751	fix_post	2		12	13.0	2.5	/experiments/knapen_AOT/AOT_stimuli/rescaled_final/0469_fw.mp4	0.0	123.68837404251099	0.10001945495605469
16	105.73241329193115	fix_pre	0		120	14.0	2.5	/experiments/knapen_AOT/AOT_stimuli/rescaled_final/1617_fw.mp4	0.0	123.78839349746704	1.0170068740844727
16	105.90801787376404	pulse	0	t		14.0	2.5	/experiments/knapen_AOT/AOT_stimuli/rescaled_final/1617_fw.mp4	0.0	123.96399807929993	
16	106.74942016601562	movie	1		293	14.0	2.5	/experiments/knapen_AOT/AOT_stimuli/rescaled_final/1617_fw.mp4	0.0	124.80540037155151	2.4835238456726074
16	107.50824356079102	pulse	1	t		14.0	2.5	/experiments/knapen_AOT/AOT_stimuli/rescaled_final/1617_fw.mp4	0.0	125.5642237663269	
16	109.10807490348816	pulse	1	t		14.0	2.5	/experiments/knapen_AOT/AOT_stimuli/rescaled_final/1617_fw.mp4	0.0	127.16405510902405	
16	109.23294401168823	fix_post	2		12	14.0	2.5	/experiments/knapen_AOT/AOT_stimuli/rescaled_final/1617_fw.mp4	0.0	127.28892421722412	0.09999799728393555
17	109.33294200897217	fix_pre	0		120	15.0	2.5	/experiments/knapen_AOT/AOT_stimuli/rescaled_final/0954_fw.mp4	0.0	127.38892221450806	1.008629322052002
17	110.34157133102417	movie	1		261	15.0	2.5	/experiments/knapen_AOT/AOT_stimuli/rescaled_final/0954_fw.mp4	0.0	128.39755153656006	2.492558002471924
17	110.70852184295654	pulse	1	t		15.0	2.5	/experiments/knapen_AOT/AOT_stimuli/rescaled_final/0954_fw.mp4	0.0	128.76450204849243	
17	112.30866146087646	pulse	1	t		15.0	2.5	/experiments/knapen_AOT/AOT_stimuli/rescaled_final/0954_fw.mp4	0.0	130.36464166641235	
17	112.8341293334961	fix_post	2		12	15.0	2.5	/experiments/knapen_AOT/AOT_stimuli/rescaled_final/0954_fw.mp4	0.0	130.89010953903198	0.09940958023071289
18	112.9335389137268	fix_pre	0		118	16.0	2.5	/experiments/knapen_AOT/AOT_stimuli/rescaled_final/1983_fw.mp4	0.0	130.9895191192627	1.000326156616211
18	113.90900254249573	pulse	0	t		16.0	2.5	/experiments/knapen_AOT/AOT_stimuli/rescaled_final/1983_fw.mp4	0.0	131.96498274803162	
18	113.93386507034302	movie	1		261	16.0	2.5	/experiments/knapen_AOT/AOT_stimuli/rescaled_final/1983_fw.mp4	0.0	131.9898452758789	2.4918484687805176
18	115.50924372673035	pulse	1	t		16.0	2.5	/experiments/knapen_AOT/AOT_stimuli/rescaled_final/1983_fw.mp4	0.0	133.56522393226624	
18	116.42571353912354	fix_post	2		12	16.0	2.5	/experiments/knapen_AOT/AOT_stimuli/rescaled_final/1983_fw.mp4	0.0	134.48169374465942	0.10009598731994629
19	116.52580952644348	fix_pre	0		120	17.0	2.5	/experiments/knapen_AOT/AOT_stimuli/rescaled_final/1409_fw.mp4	0.0	134.58178973197937	1.0084195137023926
19	117.10949993133545	pulse	0	t		17.0	2.5	/experiments/knapen_AOT/AOT_stimuli/rescaled_final/1409_fw.mp4	0.0	135.16548013687134	
19	117.53422904014587	movie	1		241	17.0	2.5	/experiments/knapen_AOT/AOT_stimuli/rescaled_final/1409_fw.mp4	0.0	135.59020924568176	2.4920125007629395
19	118.71112108230591	pulse	1	t		17.0	2.5	/experiments/knapen_AOT/AOT_stimuli/rescaled_final/1409_fw.mp4	0.0	136.7671012878418	
19	120.02624154090881	fix_post	2		12	17.0	2.5	/experiments/knapen_AOT/AOT_stimuli/rescaled_final/1409_fw.mp4	0.0	138.0822217464447	0.10001707077026367
20	120.12625861167908	fix_pre	0		120	18.0	2.5	/experiments/knapen_AOT/AOT_stimuli/rescaled_final/1821_fw.mp4	0.0	138.18223881721497	1.0169389247894287
20	120.30982375144958	pulse	0	t		18.0	2.5	/experiments/knapen_AOT/AOT_stimuli/rescaled_final/1821_fw.mp4	0.0	138.36580395698547	
20	121.1431975364685	movie	1		258	18.0	2.5	/experiments/knapen_AOT/AOT_stimuli/rescaled_final/1821_fw.mp4	0.0	139.1991777420044	2.4836175441741943
20	121.91024041175842	pulse	1	t		18.0	2.5	/experiments/knapen_AOT/AOT_stimuli/rescaled_final/1821_fw.mp4	0.0	139.9662206172943	
20	123.51057648658752	pulse	1	t		18.0	2.5	/experiments/knapen_AOT/AOT_stimuli/rescaled_final/1821_fw.mp4	0.0	141.5665566921234	
20	123.6268150806427	fix_post	2		12	18.0	2.5	/experiments/knapen_AOT/AOT_stimuli/rescaled_final/1821_fw.mp4	0.0	141.6827952861786	0.1000511646270752
21	123.72686624526978	fix_pre	0		120	19.0	2.5	blank	1.0	141.78284645080566	1.0000827312469482
21	124.72694897651672	movie	1		300	19.0	2.5	blank	1.0	142.7829291820526	2.5003767013549805
21	125.11061906814575	pulse	1	t		19.0	2.5	blank	1.0	143.16659927368164	
21	126.71077561378479	pulse	1	t		19.0	2.5	blank	1.0	144.76675581932068	
21	127.2273256778717	fix_post	2		12	19.0	2.5	blank	1.0	145.2833058834076	0.10001325607299805
22	127.3273389339447	fix_pre	0		119	20.0	2.5	/experiments/knapen_AOT/AOT_stimuli/rescaled_final/1939_fw.mp4	0.0	145.3833191394806	1.0085642337799072
22	128.3111219406128	pulse	0	t		20.0	2.5	/experiments/knapen_AOT/AOT_stimuli/rescaled_final/1939_fw.mp4	0.0	146.36710214614868	
22	128.3359031677246	movie	1		250	20.0	2.5	/experiments/knapen_AOT/AOT_stimuli/rescaled_final/1939_fw.mp4	0.0	146.3918833732605	2.4921863079071045
22	129.9107313156128	pulse	1	t		20.0	2.5	/experiments/knapen_AOT/AOT_stimuli/rescaled_final/1939_fw.mp4	0.0	147.96671152114868	
22	130.8280894756317	fix_post	2		12	20.0	2.5	/experiments/knapen_AOT/AOT_stimuli/rescaled_final/1939_fw.mp4	0.0	148.8840696811676	0.09980034828186035
23	130.92788982391357	fix_pre	0		120	21.0	2.5	/experiments/knapen_AOT/AOT_stimuli/rescaled_final/1985_rv.mp4	0.0	148.98387002944946	1.0168187618255615
23	131.51155066490173	pulse	0	t		21.0	2.5	/experiments/knapen_AOT/AOT_stimuli/rescaled_final/1985_rv.mp4	0.0	149.56753087043762	
23	131.94470858573914	movie	1		266	21.0	2.5	/experiments/knapen_AOT/AOT_stimuli/rescaled_final/1985_rv.mp4	0.0	150.00068879127502	2.483978509902954
23	133.1099796295166	pulse	1	t		21.0	2.5	/experiments/knapen_AOT/AOT_stimuli/rescaled_final/1985_rv.mp4	0.0	151.1659598350525	
23	134.4286870956421	fix_post	2		12	21.0	2.5	/experiments/knapen_AOT/AOT_stimuli/rescaled_final/1985_rv.mp4	0.0	152.48466730117798	0.09997439384460449
24	134.5286614894867	fix_pre	0		120	22.0	2.5	/experiments/knapen_AOT/AOT_stimuli/rescaled_final/0431_fw.mp4	0.0	152.58464169502258	1.0250897407531738
24	134.71235585212708	pulse	0	t		22.0	2.5	/experiments/knapen_AOT/AOT_stimuli/rescaled_final/0431_fw.mp4	0.0	152.76833605766296	
24	135.55375123023987	movie	1		250	22.0	2.5	/experiments/knapen_AOT/AOT_stimuli/rescaled_final/0431_fw.mp4	0.0	153.60973143577576	2.4754889011383057
24	136.31033778190613	pulse	1	t		22.0	2.5	/experiments/knapen_AOT/AOT_stimuli/rescaled_final/0431_fw.mp4	0.0	154.36631798744202	
24	137.91067028045654	pulse	1	t		22.0	2.5	/experiments/knapen_AOT/AOT_stimuli/rescaled_final/0431_fw.mp4	0.0	155.96665048599243	
24	138.02924013137817	fix_post	2		12	22.0	2.5	/experiments/knapen_AOT/AOT_stimuli/rescaled_final/0431_fw.mp4	0.0	156.08522033691406	0.09981489181518555
25	138.12905502319336	fix_pre	0		120	23.0	2.5	/experiments/knapen_AOT/AOT_stimuli/rescaled_final/1989_fw.mp4	0.0	156.18503522872925	1.016819953918457
25	139.14587497711182	movie	1		253	23.0	2.5	/experiments/knapen_AOT/AOT_stimuli/rescaled_final/1989_fw.mp4	0.0	157.2018551826477	2.4837982654571533
25	139.51327347755432	pulse	1	t		23.0	2.5	/experiments/knapen_AOT/AOT_stimuli/rescaled_final/1989_fw.mp4	0.0	157.5692536830902	
25	141.1110737323761	pulse	1	t		23.0	2.5	/experiments/knapen_AOT/AOT_stimuli/rescaled_final/1989_fw.mp4	0.0	159.167053937912	
25	141.62967324256897	fix_post	2		12	23.0	2.5	/experiments/knapen_AOT/AOT_stimuli/rescaled_final/1989_fw.mp4	0.0	159.68565344810486	0.0998382568359375
26	141.7295114994049	fix_pre	0		119	24.0	2.5	/experiments/knapen_AOT/AOT_stimuli/rescaled_final/1345_fw.mp4	0.0	159.7854917049408	1.0168766975402832
26	142.7132670879364	pulse	0	t		24.0	2.5	/experiments/knapen_AOT/AOT_stimuli/rescaled_final/1345_fw.mp4	0.0	160.7692472934723	
26	142.7463881969452	movie	1		252	24.0	2.5	/experiments/knapen_AOT/AOT_stimuli/rescaled_final/1345_fw.mp4	0.0	160.80236840248108	2.4837605953216553
26	144.3133852481842	pulse	1	t		24.0	2.5	/experiments/knapen_AOT/AOT_stimuli/rescaled_final/1345_fw.mp4	0.0	162.3693654537201	
26	145.23014879226685	fix_post	2		12	24.0	2.5	/experiments/knapen_AOT/AOT_stimuli/rescaled_final/1345_fw.mp4	0.0	163.28612899780273	0.10006570816040039
27	145.33021450042725	fix_pre	0		120	25.0	2.5	/experiments/knapen_AOT/AOT_stimuli/rescaled_final/1867_rv.mp4	0.0	163.38619470596313	1.0251502990722656
27	145.91379857063293	pulse	0	t		25.0	2.5	/experiments/knapen_AOT/AOT_stimuli/rescaled_final/1867_rv.mp4	0.0	163.96977877616882	
27	146.3553647994995	movie	1		268	25.0	2.5	/experiments/knapen_AOT/AOT_stimuli/rescaled_final/1867_rv.mp4	0.0	164.4113450050354	2.4753127098083496
27	147.51246094703674	pulse	1	t		25.0	2.5	/experiments/knapen_AOT/AOT_stimuli/rescaled_final/1867_rv.mp4	0.0	165.56844115257263	
27	148.83067750930786	fix_post	2		12	25.0	2.5	/experiments/knapen_AOT/AOT_stimuli/rescaled_final/1867_rv.mp4	0.0	166.88665771484375	0.09997439384460449
28	148.93065190315247	fix_pre	0		120	26.0	2.5	/experiments/knapen_AOT/AOT_stimuli/rescaled_final/0997_fw.mp4	0.0	166.98663210868835	1.0251379013061523
28	149.11417746543884	pulse	0	t		26.0	2.5	/experiments/knapen_AOT/AOT_stimuli/rescaled_final/0997_fw.mp4	0.0	167.17015767097473	
28	149.95578980445862	movie	1		281	26.0	2.5	/experiments/knapen_AOT/AOT_stimuli/rescaled_final/0997_fw.mp4	0.0	168.0117700099945	2.475466251373291
28	150.71231603622437	pulse	1	t		26.0	2.5	/experiments/knapen_AOT/AOT_stimuli/rescaled_final/0997_fw.mp4	0.0	168.76829624176025	
28	152.31305694580078	pulse	1	t		26.0	2.5	/experiments/knapen_AOT/AOT_stimuli/rescaled_final/0997_fw.mp4	0.0	170.36903715133667	
28	152.4312560558319	fix_post	2		12	26.0	2.5	/experiments/knapen_AOT/AOT_stimuli/rescaled_final/0997_fw.mp4	0.0	170.4872362613678	0.09996938705444336
29	152.53122544288635	fix_pre	0		120	27.0	2.5	/experiments/knapen_AOT/AOT_stimuli/rescaled_final/0590_fw.mp4	0.0	170.58720564842224	1.016732931137085
29	153.54795837402344	movie	1		247	27.0	2.5	/experiments/knapen_AOT/AOT_stimuli/rescaled_final/0590_fw.mp4	0.0	171.60393857955933	2.484070062637329
29	153.90748405456543	pulse	1	t		27.0	2.5	/experiments/knapen_AOT/AOT_stimuli/rescaled_final/0590_fw.mp4	0.0	171.96346426010132	
29	155.513037443161	pulse	1	t		27.0	2.5	/experiments/knapen_AOT/AOT_stimuli/rescaled_final/0590_fw.mp4	0.0	173.5690176486969	
29	156.03202843666077	fix_post	2		12	27.0	2.5	/experiments/knapen_AOT/AOT_stimuli/rescaled_final/0590_fw.mp4	0.0	174.08800864219666	0.09965991973876953
30	156.13168835639954	fix_pre	0		119	28.0	2.5	blank	1.0	174.18766856193542	0.9918596744537354
30	157.1076443195343	pulse	0	t		28.0	2.5	blank	1.0	175.1636245250702	
30	157.12354803085327	movie	1		301	28.0	2.5	blank	1.0	175.17952823638916	2.508654832839966
30	158.71586537361145	pulse	1	t		28.0	2.5	blank	1.0	176.77184557914734	
30	159.63220286369324	fix_post	2		12	28.0	2.5	blank	1.0	177.68818306922913	0.10002923011779785
31	159.73223209381104	fix_pre	0		120	29.0	2.5	/experiments/knapen_AOT/AOT_stimuli/rescaled_final/1193_fw.mp4	0.0	177.78821229934692	1.025270938873291
31	160.30761122703552	pulse	0	t		29.0	2.5	/experiments/knapen_AOT/AOT_stimuli/rescaled_final/1193_fw.mp4	0.0	178.3635914325714	
31	160.75750303268433	movie	1		262	29.0	2.5	/experiments/knapen_AOT/AOT_stimuli/rescaled_final/1193_fw.mp4	0.0	178.81348323822021	2.483595132827759
31	161.9080774784088	pulse	1	t		29.0	2.5	/experiments/knapen_AOT/AOT_stimuli/rescaled_final/1193_fw.mp4	0.0	179.9640576839447	
31	163.24109816551208	fix_post	2		11	29.0	2.5	/experiments/knapen_AOT/AOT_stimuli/rescaled_final/1193_fw.mp4	0.0	181.29707837104797	0.09166312217712402
32	163.3327612876892	fix_pre	0		120	30.0	2.5	/experiments/knapen_AOT/AOT_stimuli/rescaled_final/1553_rv.mp4	0.0	181.3887414932251	1.0252208709716797
32	163.50818014144897	pulse	0	t		30.0	2.5	/experiments/knapen_AOT/AOT_stimuli/rescaled_final/1553_rv.mp4	0.0	181.56416034698486	
32	164.3579821586609	movie	1		250	30.0	2.5	/experiments/knapen_AOT/AOT_stimuli/rescaled_final/1553_rv.mp4	0.0	182.41396236419678	2.475285768508911
32	165.1076464653015	pulse	1	t		30.0	2.5	/experiments/knapen_AOT/AOT_stimuli/rescaled_final/1553_rv.mp4	0.0	183.1636266708374	
32	166.70845651626587	pulse	1	t		30.0	2.5	/experiments/knapen_AOT/AOT_stimuli/rescaled_final/1553_rv.mp4	0.0	184.76443672180176	
32	166.8332679271698	fix_post	2		12	30.0	2.5	/experiments/knapen_AOT/AOT_stimuli/rescaled_final/1553_rv.mp4	0.0	184.8892481327057	0.10033679008483887
33	166.93360471725464	fix_pre	0		120	31.0	2.5	/experiments/knapen_AOT/AOT_stimuli/rescaled_final/0937_fw.mp4	0.0	184.98958492279053	1.0249500274658203
33	167.95855474472046	movie	1		271	31.0	2.5	/experiments/knapen_AOT/AOT_stimuli/rescaled_final/0937_fw.mp4	0.0	186.01453495025635	2.475332260131836
33	168.3100037574768	pulse	1	t		31.0	2.5	/experiments/knapen_AOT/AOT_stimuli/rescaled_final/0937_fw.mp4	0.0	186.3659839630127	
33	169.909241437912	pulse	1	t		31.0	2.5	/experiments/knapen_AOT/AOT_stimuli/rescaled_final/0937_fw.mp4	0.0	187.96522164344788	
33	170.4338870048523	fix_post	2		12	31.0	2.5	/experiments/knapen_AOT/AOT_stimuli/rescaled_final/0937_fw.mp4	0.0	188.48986721038818	0.09994864463806152
34	170.53383564949036	fix_pre	0		118	32.0	2.5	/experiments/knapen_AOT/AOT_stimuli/rescaled_final/0320_fw.mp4	0.0	188.58981585502625	1.008554220199585
34	171.50921201705933	pulse	0	t		32.0	2.5	/experiments/knapen_AOT/AOT_stimuli/rescaled_final/0320_fw.mp4	0.0	189.56519222259521	
34	171.54238986968994	movie	1		257	32.0	2.5	/experiments/knapen_AOT/AOT_stimuli/rescaled_final/0320_fw.mp4	0.0	189.59837007522583	2.4837327003479004
34	173.10804200172424	pulse	1	t		32.0	2.5	/experiments/knapen_AOT/AOT_stimuli/rescaled_final/0320_fw.mp4	0.0	191.16402220726013	
34	174.02612257003784	fix_post	2		12	32.0	2.5	/experiments/knapen_AOT/AOT_stimuli/rescaled_final/0320_fw.mp4	0.0	192.08210277557373	0.10016655921936035
35	174.1262891292572	fix_pre	0		120	33.0	2.5	blank	1.0	192.1822693347931	0.9999039173126221
35	174.70972800254822	pulse	0	t		33.0	2.5	blank	1.0	192.7657082080841	
35	175.12619304656982	movie	1		300	33.0	2.5	blank	1.0	193.1821732521057	2.500368118286133
35	176.30992650985718	pulse	1	t		33.0	2.5	blank	1.0	194.36590671539307	
35	177.62656116485596	fix_post	2		12	33.0	2.5	blank	1.0	195.68254137039185	0.10001945495605469
36	177.726580619812	fix_pre	0		120	34.0	2.5	/experiments/knapen_AOT/AOT_stimuli/rescaled_final/1527_rv.mp4	0.0	195.7825608253479	1.016860008239746
36	177.91018056869507	pulse	0	t		34.0	2.5	/experiments/knapen_AOT/AOT_stimuli/rescaled_final/1527_rv.mp4	0.0	195.96616077423096	
36	178.74344062805176	movie	1		266	34.0	2.5	/experiments/knapen_AOT/AOT_stimuli/rescaled_final/1527_rv.mp4	0.0	196.79942083358765	2.483804702758789
36	179.50861859321594	pulse	1	t		34.0	2.5	/experiments/knapen_AOT/AOT_stimuli/rescaled_final/1527_rv.mp4	0.0	197.56459879875183	
36	181.10860657691956	pulse	1	t		34.0	2.5	/experiments/knapen_AOT/AOT_stimuli/rescaled_final/1527_rv.mp4	0.0	199.16458678245544	
36	181.22724533081055	fix_post	2		12	34.0	2.5	/experiments/knapen_AOT/AOT_stimuli/rescaled_final/1527_rv.mp4	0.0	199.28322553634644	0.10006499290466309
37	181.3273103237152	fix_pre	0		120	35.0	2.5	/experiments/knapen_AOT/AOT_stimuli/rescaled_final/1489_fw.mp4	0.0	199.3832905292511	1.025102138519287
37	182.3524124622345	movie	1		258	35.0	2.5	/experiments/knapen_AOT/AOT_stimuli/rescaled_final/1489_fw.mp4	0.0	200.40839266777039	2.4754717350006104
37	182.71116495132446	pulse	1	t		35.0	2.5	/experiments/knapen_AOT/AOT_stimuli/rescaled_final/1489_fw.mp4	0.0	200.76714515686035	
37	184.30880570411682	pulse	1	t		35.0	2.5	/experiments/knapen_AOT/AOT_stimuli/rescaled_final/1489_fw.mp4	0.0	202.3647859096527	
37	184.8278841972351	fix_post	2		12	35.0	2.5	/experiments/knapen_AOT/AOT_stimuli/rescaled_final/1489_fw.mp4	0.0	202.883864402771	0.09987187385559082
38	184.9277560710907	fix_pre	0		119	36.0	2.5	/experiments/knapen_AOT/AOT_stimuli/rescaled_final/1025_fw.mp4	0.0	202.9837362766266	1.025193214416504
38	185.91136169433594	pulse	0	t		36.0	2.5	/experiments/knapen_AOT/AOT_stimuli/rescaled_final/1025_fw.mp4	0.0	203.96734189987183	
38	185.9529492855072	movie	1		248	36.0	2.5	/experiments/knapen_AOT/AOT_stimuli/rescaled_final/1025_fw.mp4	0.0	204.0089294910431	2.475412368774414
38	187.50988698005676	pulse	1	t		36.0	2.5	/experiments/knapen_AOT/AOT_stimuli/rescaled_final/1025_fw.mp4	0.0	205.56586718559265	
38	188.42836165428162	fix_post	2		12	36.0	2.5	/experiments/knapen_AOT/AOT_stimuli/rescaled_final/1025_fw.mp4	0.0	206.4843418598175	0.09984993934631348
39	188.52821159362793	fix_pre	0		120	37.0	2.5	/experiments/knapen_AOT/AOT_stimuli/rescaled_final/0206_rv.mp4	0.0	206.58419179916382	1.0253093242645264
39	189.11183953285217	pulse	0	t		37.0	2.5	/experiments/knapen_AOT/AOT_stimuli/rescaled_final/0206_rv.mp4	0.0	207.16781973838806	
39	189.55352091789246	movie	1		255	37.0	2.5	/experiments/knapen_AOT/AOT_stimuli/rescaled_final/0206_rv.mp4	0.0	207.60950112342834	2.4757468700408936
39	190.71044516563416	pulse	1	t		37.0	2.5	/experiments/knapen_AOT/AOT_stimuli/rescaled_final/0206_rv.mp4	0.0	208.76642537117004	
39	192.02926778793335	fix_post	2		12	37.0	2.5	/experiments/knapen_AOT/AOT_stimuli/rescaled_final/0206_rv.mp4	0.0	210.08524799346924	0.09966707229614258
40	192.1289348602295	fix_pre	0		120	38.0	2.5	/experiments/knapen_AOT/AOT_stimuli/rescaled_final/0516_rv.mp4	0.0	210.18491506576538	1.0250282287597656
40	192.31247401237488	pulse	0	t		38.0	2.5	/experiments/knapen_AOT/AOT_stimuli/rescaled_final/0516_rv.mp4	0.0	210.36845421791077	
40	193.15396308898926	movie	1		276	38.0	2.5	/experiments/knapen_AOT/AOT_stimuli/rescaled_final/0516_rv.mp4	0.0	211.20994329452515	2.475515127182007
40	193.9104528427124	pulse	1	t		38.0	2.5	/experiments/knapen_AOT/AOT_stimuli/rescaled_final/0516_rv.mp4	0.0	211.9664330482483	
40	195.51066756248474	pulse	1	t		38.0	2.5	/experiments/knapen_AOT/AOT_stimuli/rescaled_final/0516_rv.mp4	0.0	213.56664776802063	
40	195.62947821617126	fix_post	2		12	38.0	2.5	/experiments/knapen_AOT/AOT_stimuli/rescaled_final/0516_rv.mp4	0.0	213.68545842170715	0.10009312629699707
41	195.72957134246826	fix_pre	0		120	39.0	2.5	/experiments/knapen_AOT/AOT_stimuli/rescaled_final/2015_fw.mp4	0.0	213.78555154800415	1.0167443752288818
41	196.74631571769714	movie	1		267	39.0	2.5	/experiments/knapen_AOT/AOT_stimuli/rescaled_final/2015_fw.mp4	0.0	214.80229592323303	2.4839320182800293
41	197.1127896308899	pulse	1	t		39.0	2.5	/experiments/knapen_AOT/AOT_stimuli/rescaled_final/2015_fw.mp4	0.0	215.16876983642578	
41	198.71103835105896	pulse	1	t		39.0	2.5	/experiments/knapen_AOT/AOT_stimuli/rescaled_final/2015_fw.mp4	0.0	216.76701855659485	
41	199.23024773597717	fix_post	2		12	39.0	2.5	/experiments/knapen_AOT/AOT_stimuli/rescaled_final/2015_fw.mp4	0.0	217.28622794151306	0.09967589378356934
42	199.32992362976074	fix_pre	0		119	40.0	2.5	blank	1.0	217.38590383529663	0.9917232990264893
42	200.3135232925415	pulse	0	t		40.0	2.5	blank	1.0	218.3695034980774	
42	200.32164692878723	movie	1		301	40.0	2.5	blank	1.0	218.37762713432312	2.508758544921875
42	201.9138638973236	pulse	1	t		40.0	2.5	blank	1.0	219.9698441028595	
42	202.8304054737091	fix_post	2		12	40.0	2.5	blank	1.0	220.886385679245	0.09998250007629395
43	202.9303879737854	fix_pre	0		120	41.0	2.5	/experiments/knapen_AOT/AOT_stimuli/rescaled_final/1119_fw.mp4	0.0	220.9863681793213	1.0170013904571533
43	203.51402306556702	pulse	0	t		41.0	2.5	/experiments/knapen_AOT/AOT_stimuli/rescaled_final/1119_fw.mp4	0.0	221.5700032711029	
43	203.94738936424255	movie	1		284	41.0	2.5	/experiments/knapen_AOT/AOT_stimuli/rescaled_final/1119_fw.mp4	0.0	222.00336956977844	2.4838948249816895
43	205.11322736740112	pulse	1	t		41.0	2.5	/experiments/knapen_AOT/AOT_stimuli/rescaled_final/1119_fw.mp4	0.0	223.169207572937	
43	206.43128418922424	fix_post	2		12	41.0	2.5	/experiments/knapen_AOT/AOT_stimuli/rescaled_final/1119_fw.mp4	0.0	224.48726439476013	0.0996396541595459
44	206.5309238433838	fix_pre	0		120	42.0	2.5	/experiments/knapen_AOT/AOT_stimuli/rescaled_final/0137_rv.mp4	0.0	224.58690404891968	1.0252575874328613
44	206.71447801589966	pulse	0	t		42.0	2.5	/experiments/knapen_AOT/AOT_stimuli/rescaled_final/0137_rv.mp4	0.0	224.77045822143555	
44	207.55618143081665	movie	1		262	42.0	2.5	/experiments/knapen_AOT/AOT_stimuli/rescaled_final/0137_rv.mp4	0.0	225.61216163635254	2.475412368774414
44	208.31289505958557	pulse	1	t		42.0	2.5	/experiments/knapen_AOT/AOT_stimuli/rescaled_final/0137_rv.mp4	0.0	226.36887526512146	
44	209.91322469711304	pulse	1	t		42.0	2.5	/experiments/knapen_AOT/AOT_stimuli/rescaled_final/0137_rv.mp4	0.0	227.96920490264893	
44	210.03159379959106	fix_post	2		12	42.0	2.5	/experiments/knapen_AOT/AOT_stimuli/rescaled_final/0137_rv.mp4	0.0	228.08757400512695	0.09986400604248047
45	210.13145780563354	fix_pre	0		120	43.0	2.5	/experiments/knapen_AOT/AOT_stimuli/rescaled_final/1420_rv.mp4	0.0	228.18743801116943	1.0168333053588867
45	211.14829111099243	movie	1		262	43.0	2.5	/experiments/knapen_AOT/AOT_stimuli/rescaled_final/1420_rv.mp4	0.0	229.20427131652832	2.483690023422241
45	211.51557850837708	pulse	1	t		43.0	2.5	/experiments/knapen_AOT/AOT_stimuli/rescaled_final/1420_rv.mp4	0.0	229.57155871391296	
45	213.11341786384583	pulse	1	t		43.0	2.5	/experiments/knapen_AOT/AOT_stimuli/rescaled_final/1420_rv.mp4	0.0	231.1693980693817	
45	213.63198113441467	fix_post	2		12	43.0	2.5	/experiments/knapen_AOT/AOT_stimuli/rescaled_final/1420_rv.mp4	0.0	231.68796133995056	0.10002636909484863
46	213.73200750350952	fix_pre	0		119	44.0	2.5	/experiments/knapen_AOT/AOT_stimuli/rescaled_final/1018_fw.mp4	0.0	231.7879877090454	1.0085155963897705
46	214.70797491073608	pulse	0	t		44.0	2.5	/experiments/knapen_AOT/AOT_stimuli/rescaled_final/1018_fw.mp4	0.0	232.76395511627197	
46	214.7405230998993	movie	1		250	44.0	2.5	/experiments/knapen_AOT/AOT_stimuli/rescaled_final/1018_fw.mp4	0.0	232.79650330543518	2.492170572280884
46	216.31434106826782	pulse	1	t		44.0	2.5	/experiments/knapen_AOT/AOT_stimuli/rescaled_final/1018_fw.mp4	0.0	234.3703212738037	
46	217.23269367218018	fix_post	2		12	44.0	2.5	/experiments/knapen_AOT/AOT_stimuli/rescaled_final/1018_fw.mp4	0.0	235.28867387771606	0.09988832473754883
47	217.33258199691772	fix_pre	0		120	45.0	2.5	/experiments/knapen_AOT/AOT_stimuli/rescaled_final/1632_fw.mp4	0.0	235.3885622024536	1.0170307159423828
47	217.90847873687744	pulse	0	t		45.0	2.5	/experiments/knapen_AOT/AOT_stimuli/rescaled_final/1632_fw.mp4	0.0	235.96445894241333	
47	218.3496127128601	movie	1		264	45.0	2.5	/experiments/knapen_AOT/AOT_stimuli/rescaled_final/1632_fw.mp4	0.0	236.405592918396	2.483492612838745
47	219.50858998298645	pulse	1	t		45.0	2.5	/experiments/knapen_AOT/AOT_stimuli/rescaled_final/1632_fw.mp4	0.0	237.56457018852234	
47	220.83310532569885	fix_post	2		12	45.0	2.5	/experiments/knapen_AOT/AOT_stimuli/rescaled_final/1632_fw.mp4	0.0	238.88908553123474	0.09999418258666992
48	220.93309950828552	fix_pre	0		105	46.0	2.5	/experiments/knapen_AOT/AOT_stimuli/rescaled_final/2011_rv.mp4	0.0	238.9890797138214	2.2339906692504883
48	221.10842394828796	pulse	0	t		46.0	2.5	/experiments/knapen_AOT/AOT_stimuli/rescaled_final/2011_rv.mp4	0.0	239.16440415382385	
48	223.1370301246643	pulse	0	t		46.0	2.5	/experiments/knapen_AOT/AOT_stimuli/rescaled_final/2011_rv.mp4	0.0	241.1930103302002	
48	223.167090177536	movie	1		130	46.0	2.5	/experiments/knapen_AOT/AOT_stimuli/rescaled_final/2011_rv.mp4	0.0	241.2230703830719	1.2672154903411865
48	224.30894708633423	pulse	1	t		46.0	2.5	/experiments/knapen_AOT/AOT_stimuli/rescaled_final/2011_rv.mp4	0.0	242.36492729187012	
48	224.4343056678772	fix_post	2		12	46.0	2.5	/experiments/knapen_AOT/AOT_stimuli/rescaled_final/2011_rv.mp4	0.0	242.4902858734131	0.09937024116516113
49	224.53367590904236	fix_pre	0		120	47.0	2.5	/experiments/knapen_AOT/AOT_stimuli/rescaled_final/0545_rv.mp4	0.0	242.58965611457825	1.025277853012085
49	225.55895376205444	movie	1		270	47.0	2.5	/experiments/knapen_AOT/AOT_stimuli/rescaled_final/0545_rv.mp4	0.0	243.61493396759033	2.475191831588745
49	225.9093689918518	pulse	1	t		47.0	2.5	/experiments/knapen_AOT/AOT_stimuli/rescaled_final/0545_rv.mp4	0.0	243.9653491973877	
49	227.50931239128113	pulse	1	t		47.0	2.5	/experiments/knapen_AOT/AOT_stimuli/rescaled_final/0545_rv.mp4	0.0	245.56529259681702	
49	228.0341455936432	fix_post	2		12	47.0	2.5	/experiments/knapen_AOT/AOT_stimuli/rescaled_final/0545_rv.mp4	0.0	246.09012579917908	0.10001897811889648
50	228.13416457176208	fix_pre	0		118	48.0	2.5	/experiments/knapen_AOT/AOT_stimuli/rescaled_final/1422_rv.mp4	0.0	246.19014477729797	1.000145435333252
50	229.1096088886261	pulse	0	t		48.0	2.5	/experiments/knapen_AOT/AOT_stimuli/rescaled_final/1422_rv.mp4	0.0	247.165589094162	
50	229.13431000709534	movie	1		265	48.0	2.5	/experiments/knapen_AOT/AOT_stimuli/rescaled_final/1422_rv.mp4	0.0	247.19029021263123	2.492067337036133
50	230.71009492874146	pulse	1	t		48.0	2.5	/experiments/knapen_AOT/AOT_stimuli/rescaled_final/1422_rv.mp4	0.0	248.76607513427734	
50	231.62637734413147	fix_post	2		12	48.0	2.5	/experiments/knapen_AOT/AOT_stimuli/rescaled_final/1422_rv.mp4	0.0	249.68235754966736	0.10002398490905762
51	231.72640132904053	fix_pre	0		120	49.0	2.5	blank	1.0	249.78238153457642	1.0001282691955566
51	232.31007933616638	pulse	0	t		49.0	2.5	blank	1.0	250.36605954170227	
51	232.72652959823608	movie	1		300	49.0	2.5	blank	1.0	250.78250980377197	2.50053334236145
51	233.9105327129364	pulse	1	t		49.0	2.5	blank	1.0	251.9665129184723	
51	235.22706294059753	fix_post	2		12	49.0	2.5	blank	1.0	253.28304314613342	0.09990382194519043
52	235.32696676254272	fix_pre	0		120	50.0	2.5	/experiments/knapen_AOT/AOT_stimuli/rescaled_final/0802_fw.mp4	0.0	253.3829469680786	1.025151252746582
52	235.51048731803894	pulse	0	t		50.0	2.5	/experiments/knapen_AOT/AOT_stimuli/rescaled_final/0802_fw.mp4	0.0	253.56646752357483	
52	236.3521180152893	movie	1		267	50.0	2.5	/experiments/knapen_AOT/AOT_stimuli/rescaled_final/0802_fw.mp4	0.0	254.4080982208252	2.4757301807403564
52	237.10845637321472	pulse	1	t		50.0	2.5	/experiments/knapen_AOT/AOT_stimuli/rescaled_final/0802_fw.mp4	0.0	255.1644365787506	
52	238.71150827407837	pulse	1	t		50.0	2.5	/experiments/knapen_AOT/AOT_stimuli/rescaled_final/0802_fw.mp4	0.0	256.76748847961426	
52	238.82784819602966	fix_post	2		12	50.0	2.5	/experiments/knapen_AOT/AOT_stimuli/rescaled_final/0802_fw.mp4	0.0	256.88382840156555	0.09961557388305664
53	238.92746376991272	fix_pre	0		120	51.0	2.5	/experiments/knapen_AOT/AOT_stimuli/rescaled_final/1342_rv.mp4	0.0	256.9834439754486	1.0251684188842773
53	239.952632188797	movie	1		265	51.0	2.5	/experiments/knapen_AOT/AOT_stimuli/rescaled_final/1342_rv.mp4	0.0	258.0086123943329	2.475578546524048
53	240.31361556053162	pulse	1	t		51.0	2.5	/experiments/knapen_AOT/AOT_stimuli/rescaled_final/1342_rv.mp4	0.0	258.3695957660675	
53	241.90938544273376	pulse	1	t		51.0	2.5	/experiments/knapen_AOT/AOT_stimuli/rescaled_final/1342_rv.mp4	0.0	259.96536564826965	
53	242.42821073532104	fix_post	2		12	51.0	2.5	/experiments/knapen_AOT/AOT_stimuli/rescaled_final/1342_rv.mp4	0.0	260.48419094085693	0.09981989860534668
54	242.5280306339264	fix_pre	0		119	52.0	2.5	/experiments/knapen_AOT/AOT_stimuli/rescaled_final/1683_fw.mp4	0.0	260.5840108394623	1.0251743793487549
54	243.51188468933105	pulse	0	t		52.0	2.5	/experiments/knapen_AOT/AOT_stimuli/rescaled_final/1683_fw.mp4	0.0	261.56786489486694	
54	243.55320501327515	movie	1		276	52.0	2.5	/experiments/knapen_AOT/AOT_stimuli/rescaled_final/1683_fw.mp4	0.0	261.60918521881104	2.475440263748169
54	245.11053943634033	pulse	1	t		52.0	2.5	/experiments/knapen_AOT/AOT_stimuli/rescaled_final/1683_fw.mp4	0.0	263.1665196418762	
54	246.02864527702332	fix_post	2		11	52.0	2.5	/experiments/knapen_AOT/AOT_stimuli/rescaled_final/1683_fw.mp4	0.0	264.0846254825592	0.09991097450256348
55	246.12855625152588	fix_pre	0		120	53.0	2.5	/experiments/knapen_AOT/AOT_stimuli/rescaled_final/1420_rv.mp4	0.0	264.18453645706177	1.0253984928131104
55	246.712176322937	pulse	0	t		53.0	2.5	/experiments/knapen_AOT/AOT_stimuli/rescaled_final/1420_rv.mp4	0.0	264.7681565284729	
55	247.153954744339	movie	1		274	53.0	2.5	/experiments/knapen_AOT/AOT_stimuli/rescaled_final/1420_rv.mp4	0.0	265.2099349498749	2.475114583969116
55	248.31071662902832	pulse	1	t		53.0	2.5	/experiments/knapen_AOT/AOT_stimuli/rescaled_final/1420_rv.mp4	0.0	266.3666968345642	
55	249.6290693283081	fix_post	2		12	53.0	2.5	/experiments/knapen_AOT/AOT_stimuli/rescaled_final/1420_rv.mp4	0.0	267.685049533844	0.10001420974731445
56	249.72908353805542	fix_pre	0		120	54.0	2.5	/experiments/knapen_AOT/AOT_stimuli/rescaled_final/2083_fw.mp4	0.0	267.7850637435913	1.01701021194458
56	249.91281080245972	pulse	0	t		54.0	2.5	/experiments/knapen_AOT/AOT_stimuli/rescaled_final/2083_fw.mp4	0.0	267.9687910079956	
56	250.74609375	movie	1		280	54.0	2.5	/experiments/knapen_AOT/AOT_stimuli/rescaled_final/2083_fw.mp4	0.0	268.8020739555359	2.483757734298706
56	251.51098585128784	pulse	1	t		54.0	2.5	/experiments/knapen_AOT/AOT_stimuli/rescaled_final/2083_fw.mp4	0.0	269.56696605682373	
56	253.11143851280212	pulse	1	t		54.0	2.5	/experiments/knapen_AOT/AOT_stimuli/rescaled_final/2083_fw.mp4	0.0	271.167418718338	
56	253.2298514842987	fix_post	2		12	54.0	2.5	/experiments/knapen_AOT/AOT_stimuli/rescaled_final/2083_fw.mp4	0.0	271.2858316898346	0.0999596118927002
57	253.3298110961914	fix_pre	0		120	55.0	2.5	/experiments/knapen_AOT/AOT_stimuli/rescaled_final/1968_fw.mp4	0.0	271.3857913017273	1.0166552066802979
57	254.3464663028717	movie	1		276	55.0	2.5	/experiments/knapen_AOT/AOT_stimuli/rescaled_final/1968_fw.mp4	0.0	272.4024465084076	2.4838616847991943
57	254.71152877807617	pulse	1	t		55.0	2.5	/experiments/knapen_AOT/AOT_stimuli/rescaled_final/1968_fw.mp4	0.0	272.76750898361206	
57	256.3115520477295	pulse	1	t		55.0	2.5	/experiments/knapen_AOT/AOT_stimuli/rescaled_final/1968_fw.mp4	0.0	274.3675322532654	
57	256.8303279876709	fix_post	2		12	55.0	2.5	/experiments/knapen_AOT/AOT_stimuli/rescaled_final/1968_fw.mp4	0.0	274.8863081932068	0.09991025924682617
58	256.9302382469177	fix_pre	0		119	56.0	2.5	blank	1.0	274.9862184524536	0.9918186664581299
58	257.9140684604645	pulse	0	t		56.0	2.5	blank	1.0	275.97004866600037	
58	257.92205691337585	movie	1		301	56.0	2.5	blank	1.0	275.97803711891174	2.5086262226104736
58	259.5141701698303	pulse	1	t		56.0	2.5	blank	1.0	277.5701503753662	
58	260.4306831359863	fix_post	2		12	56.0	2.5	blank	1.0	278.4866633415222	0.10003161430358887
59	260.5307147502899	fix_pre	0		120	57.0	2.5	/experiments/knapen_AOT/AOT_stimuli/rescaled_final/1519_rv.mp4	0.0	278.5866949558258	1.016810417175293
59	261.11472821235657	pulse	0	t		57.0	2.5	/experiments/knapen_AOT/AOT_stimuli/rescaled_final/1519_rv.mp4	0.0	279.17070841789246	
59	261.5475251674652	movie	1		273	57.0	2.5	/experiments/knapen_AOT/AOT_stimuli/rescaled_final/1519_rv.mp4	0.0	279.6035053730011	2.483854055404663
59	262.71331310272217	pulse	1	t		57.0	2.5	/experiments/knapen_AOT/AOT_stimuli/rescaled_final/1519_rv.mp4	0.0	280.76929330825806	
59	264.0313792228699	fix_post	2		12	57.0	2.5	/experiments/knapen_AOT/AOT_stimuli/rescaled_final/1519_rv.mp4	0.0	282.08735942840576	0.10004448890686035
60	264.13142371177673	fix_pre	0		120	58.0	2.5	/experiments/knapen_AOT/AOT_stimuli/rescaled_final/1988_rv.mp4	0.0	282.1874039173126	1.0252230167388916
60	264.31481981277466	pulse	0	t		58.0	2.5	/experiments/knapen_AOT/AOT_stimuli/rescaled_final/1988_rv.mp4	0.0	282.37080001831055	
60	265.1566467285156	movie	1		284	58.0	2.5	/experiments/knapen_AOT/AOT_stimuli/rescaled_final/1988_rv.mp4	0.0	283.2126269340515	2.4752652645111084
60	265.912798166275	pulse	1	t		58.0	2.5	/experiments/knapen_AOT/AOT_stimuli/rescaled_final/1988_rv.mp4	0.0	283.9687783718109	
60	267.51327204704285	pulse	1	t		58.0	2.5	/experiments/knapen_AOT/AOT_stimuli/rescaled_final/1988_rv.mp4	0.0	285.56925225257874	
60	267.63191199302673	fix_post	2		12	58.0	2.5	/experiments/knapen_AOT/AOT_stimuli/rescaled_final/1988_rv.mp4	0.0	285.6878921985626	0.0999596118927002
61	267.73187160491943	fix_pre	0		120	59.0	2.5	/experiments/knapen_AOT/AOT_stimuli/rescaled_final/0975_fw.mp4	0.0	285.7878518104553	1.025115728378296
61	268.75698733329773	movie	1		280	59.0	2.5	/experiments/knapen_AOT/AOT_stimuli/rescaled_final/0975_fw.mp4	0.0	286.8129675388336	2.4754066467285156
61	269.1139500141144	pulse	1	t		59.0	2.5	/experiments/knapen_AOT/AOT_stimuli/rescaled_final/0975_fw.mp4	0.0	287.16993021965027	
61	270.7137942314148	pulse	1	t		59.0	2.5	/experiments/knapen_AOT/AOT_stimuli/rescaled_final/0975_fw.mp4	0.0	288.7697744369507	
61	271.23239398002625	fix_post	2		12	59.0	2.5	/experiments/knapen_AOT/AOT_stimuli/rescaled_final/0975_fw.mp4	0.0	289.28837418556213	0.09996867179870605
62	271.33236265182495	fix_pre	0		119	60.0	2.5	/experiments/knapen_AOT/AOT_stimuli/rescaled_final/0582_rv.mp4	0.0	289.38834285736084	1.0085060596466064
62	272.3083963394165	pulse	0	t		60.0	2.5	/experiments/knapen_AOT/AOT_stimuli/rescaled_final/0582_rv.mp4	0.0	290.3643765449524	
62	272.34086871147156	movie	1		278	60.0	2.5	/experiments/knapen_AOT/AOT_stimuli/rescaled_final/0582_rv.mp4	0.0	290.39684891700745	2.4921553134918213
62	273.90920424461365	pulse	1	t		60.0	2.5	/experiments/knapen_AOT/AOT_stimuli/rescaled_final/0582_rv.mp4	0.0	291.96518445014954	
62	274.8330240249634	fix_post	2		12	60.0	2.5	/experiments/knapen_AOT/AOT_stimuli/rescaled_final/0582_rv.mp4	0.0	292.88900423049927	0.0999140739440918
63	274.93293809890747	fix_pre	0		120	61.0	2.5	blank	1.0	292.98891830444336	1.0003299713134766
63	275.50848937034607	pulse	0	t		61.0	2.5	blank	1.0	293.56446957588196	
63	275.93326807022095	movie	1		300	61.0	2.5	blank	1.0	293.98924827575684	2.500225782394409
63	277.10853695869446	pulse	1	t		61.0	2.5	blank	1.0	295.16451716423035	
63	278.43349385261536	fix_post	2		12	61.0	2.5	blank	1.0	296.48947405815125	0.09994649887084961
64	278.5334403514862	fix_pre	0		120	62.0	2.5	/experiments/knapen_AOT/AOT_stimuli/rescaled_final/1632_rv.mp4	0.0	296.5894205570221	1.0252416133880615
64	278.7087233066559	pulse	0	t		62.0	2.5	/experiments/knapen_AOT/AOT_stimuli/rescaled_final/1632_rv.mp4	0.0	296.7647035121918	
64	279.55868196487427	movie	1		274	62.0	2.5	/experiments/knapen_AOT/AOT_stimuli/rescaled_final/1632_rv.mp4	0.0	297.61466217041016	2.4753897190093994
64	280.3089156150818	pulse	1	t		62.0	2.5	/experiments/knapen_AOT/AOT_stimuli/rescaled_final/1632_rv.mp4	0.0	298.3648958206177	
64	281.908695936203	pulse	1	t		62.0	2.5	/experiments/knapen_AOT/AOT_stimuli/rescaled_final/1632_rv.mp4	0.0	299.9646761417389	
64	282.03407168388367	fix_post	2		12	62.0	2.5	/experiments/knapen_AOT/AOT_stimuli/rescaled_final/1632_rv.mp4	0.0	300.09005188941956	0.09995412826538086
65	282.13402581214905	fix_pre	0		120	63.0	2.5	/experiments/knapen_AOT/AOT_stimuli/rescaled_final/0594_fw.mp4	0.0	300.19000601768494	1.025101661682129
65	283.1591274738312	movie	1		290	63.0	2.5	/experiments/knapen_AOT/AOT_stimuli/rescaled_final/0594_fw.mp4	0.0	301.21510767936707	2.4756875038146973
65	283.5095064640045	pulse	1	t		63.0	2.5	/experiments/knapen_AOT/AOT_stimuli/rescaled_final/0594_fw.mp4	0.0	301.5654866695404	
65	285.10961413383484	pulse	1	t		63.0	2.5	/experiments/knapen_AOT/AOT_stimuli/rescaled_final/0594_fw.mp4	0.0	303.1655943393707	
65	285.6348149776459	fix_post	2		12	63.0	2.5	/experiments/knapen_AOT/AOT_stimuli/rescaled_final/0594_fw.mp4	0.0	303.69079518318176	0.09991455078125
66	285.7347295284271	fix_pre	0		118	64.0	2.5	/experiments/knapen_AOT/AOT_stimuli/rescaled_final/0585_rv.mp4	0.0	303.790709733963	1.008389949798584
66	286.7099039554596	pulse	0	t		64.0	2.5	/experiments/knapen_AOT/AOT_stimuli/rescaled_final/0585_rv.mp4	0.0	304.7658841609955	
66	286.7431194782257	movie	1		271	64.0	2.5	/experiments/knapen_AOT/AOT_stimuli/rescaled_final/0585_rv.mp4	0.0	304.7990996837616	2.4835619926452637
66	288.309401512146	pulse	1	t		64.0	2.5	/experiments/knapen_AOT/AOT_stimuli/rescaled_final/0585_rv.mp4	0.0	306.3653817176819	
66	289.226681470871	fix_post	2		12	64.0	2.5	/experiments/knapen_AOT/AOT_stimuli/rescaled_final/0585_rv.mp4	0.0	307.28266167640686	0.1000821590423584
67	289.32676362991333	fix_pre	0		120	65.0	2.5	/experiments/knapen_AOT/AOT_stimuli/rescaled_final/1422_fw.mp4	0.0	307.3827438354492	1.0167725086212158
67	289.9103798866272	pulse	0	t		65.0	2.5	/experiments/knapen_AOT/AOT_stimuli/rescaled_final/1422_fw.mp4	0.0	307.9663600921631	
67	290.34353613853455	movie	1		275	65.0	2.5	/experiments/knapen_AOT/AOT_stimuli/rescaled_final/1422_fw.mp4	0.0	308.39951634407043	2.48374080657959
67	291.50877809524536	pulse	1	t		65.0	2.5	/experiments/knapen_AOT/AOT_stimuli/rescaled_final/1422_fw.mp4	0.0	309.56475830078125	
67	292.82727694511414	fix_post	2		12	65.0	2.5	/experiments/knapen_AOT/AOT_stimuli/rescaled_final/1422_fw.mp4	0.0	310.88325715065	0.10000348091125488
68	292.9272804260254	fix_pre	0		120	66.0	2.5	/experiments/knapen_AOT/AOT_stimuli/rescaled_final/1625_rv.mp4	0.0	310.9832606315613	1.0168476104736328
68	293.1108660697937	pulse	0	t		66.0	2.5	/experiments/knapen_AOT/AOT_stimuli/rescaled_final/1625_rv.mp4	0.0	311.1668462753296	
68	293.944128036499	movie	1		276	66.0	2.5	/experiments/knapen_AOT/AOT_stimuli/rescaled_final/1625_rv.mp4	0.0	312.0001082420349	2.483948230743408
68	294.70975279808044	pulse	1	t		66.0	2.5	/experiments/knapen_AOT/AOT_stimuli/rescaled_final/1625_rv.mp4	0.0	312.76573300361633	
68	296.30932211875916	pulse	1	t		66.0	2.5	/experiments/knapen_AOT/AOT_stimuli/rescaled_final/1625_rv.mp4	0.0	314.36530232429504	
68	296.42807626724243	fix_post	2		12	66.0	2.5	/experiments/knapen_AOT/AOT_stimuli/rescaled_final/1625_rv.mp4	0.0	314.4840564727783	0.09978723526000977
69	296.52786350250244	fix_pre	0		120	67.0	2.5	/experiments/knapen_AOT/AOT_stimuli/rescaled_final/1476_rv.mp4	0.0	314.58384370803833	1.016899585723877
69	297.5447630882263	movie	1		290	67.0	2.5	/experiments/knapen_AOT/AOT_stimuli/rescaled_final/1476_rv.mp4	0.0	315.6007432937622	2.4837582111358643
69	297.90986251831055	pulse	1	t		67.0	2.5	/experiments/knapen_AOT/AOT_stimuli/rescaled_final/1476_rv.mp4	0.0	315.96584272384644	
69	299.50961995124817	pulse	1	t		67.0	2.5	/experiments/knapen_AOT/AOT_stimuli/rescaled_final/1476_rv.mp4	0.0	317.56560015678406	
69	300.0285212993622	fix_post	2		12	67.0	2.5	/experiments/knapen_AOT/AOT_stimuli/rescaled_final/1476_rv.mp4	0.0	318.08450150489807	0.0998680591583252
70	300.1283893585205	fix_pre	0		119	68.0	2.5	/experiments/knapen_AOT/AOT_stimuli/rescaled_final/0306_fw.mp4	0.0	318.1843695640564	1.0084586143493652
70	301.11202907562256	pulse	0	t		68.0	2.5	/experiments/knapen_AOT/AOT_stimuli/rescaled_final/0306_fw.mp4	0.0	319.16800928115845	
70	301.1368479728699	movie	1		275	68.0	2.5	/experiments/knapen_AOT/AOT_stimuli/rescaled_final/0306_fw.mp4	0.0	319.19282817840576	2.4921724796295166
70	302.7105839252472	pulse	1	t		68.0	2.5	/experiments/knapen_AOT/AOT_stimuli/rescaled_final/0306_fw.mp4	0.0	320.7665641307831	
70	303.6290204524994	fix_post	2		12	68.0	2.5	/experiments/knapen_AOT/AOT_stimuli/rescaled_final/0306_fw.mp4	0.0	321.6850006580353	0.10017609596252441
71	303.7291965484619	fix_pre	0		120	69.0	2.5	/experiments/knapen_AOT/AOT_stimuli/rescaled_final/1469_rv.mp4	0.0	321.7851767539978	1.0248908996582031
71	304.3125126361847	pulse	0	t		69.0	2.5	/experiments/knapen_AOT/AOT_stimuli/rescaled_final/1469_rv.mp4	0.0	322.3684928417206	
71	304.7540874481201	movie	1		275	69.0	2.5	/experiments/knapen_AOT/AOT_stimuli/rescaled_final/1469_rv.mp4	0.0	322.810067653656	2.4754350185394287
71	305.91067934036255	pulse	1	t		69.0	2.5	/experiments/knapen_AOT/AOT_stimuli/rescaled_final/1469_rv.mp4	0.0	323.96665954589844	
71	307.22952246665955	fix_post	2		12	69.0	2.5	/experiments/knapen_AOT/AOT_stimuli/rescaled_final/1469_rv.mp4	0.0	325.28550267219543	0.09994792938232422
72	307.32947039604187	fix_pre	0		120	70.0	2.5	blank	1.0	325.38545060157776	1.000131607055664
72	307.5129609107971	pulse	0	t		70.0	2.5	blank	1.0	325.568941116333	
72	308.32960200309753	movie	1		300	70.0	2.5	blank	1.0	326.3855822086334	2.5003411769866943
72	309.11322140693665	pulse	1	t		70.0	2.5	blank	1.0	327.16920161247253	
72	310.7135281562805	pulse	1	t		70.0	2.5	blank	1.0	328.7695083618164	
72	310.82994318008423	fix_post	2		12	70.0	2.5	blank	1.0	328.8859233856201	0.10001659393310547
73	310.92995977401733	fix_pre	0		120	71.0	2.5	/experiments/knapen_AOT/AOT_stimuli/rescaled_final/1909_rv.mp4	0.0	328.9859399795532	1.0252740383148193
73	311.95523381233215	movie	1		269	71.0	2.5	/experiments/knapen_AOT/AOT_stimuli/rescaled_final/1909_rv.mp4	0.0	330.01121401786804	2.475273847579956
73	312.3121407032013	pulse	1	t		71.0	2.5	/experiments/knapen_AOT/AOT_stimuli/rescaled_final/1909_rv.mp4	0.0	330.3681209087372	
73	313.91177320480347	pulse	1	t		71.0	2.5	/experiments/knapen_AOT/AOT_stimuli/rescaled_final/1909_rv.mp4	0.0	331.96775341033936	
73	314.4305076599121	fix_post	2		12	71.0	2.5	/experiments/knapen_AOT/AOT_stimuli/rescaled_final/1909_rv.mp4	0.0	332.486487865448	0.10023951530456543
74	314.5307471752167	fix_pre	0		119	72.0	2.5	/experiments/knapen_AOT/AOT_stimuli/rescaled_final/0727_fw.mp4	0.0	332.58672738075256	1.016679286956787
74	315.514178276062	pulse	0	t		72.0	2.5	/experiments/knapen_AOT/AOT_stimuli/rescaled_final/0727_fw.mp4	0.0	333.5701584815979	
74	315.54742646217346	movie	1		281	72.0	2.5	/experiments/knapen_AOT/AOT_stimuli/rescaled_final/0727_fw.mp4	0.0	333.60340666770935	2.4837472438812256
74	317.11404252052307	pulse	1	t		72.0	2.5	/experiments/knapen_AOT/AOT_stimuli/rescaled_final/0727_fw.mp4	0.0	335.17002272605896	
74	318.0311737060547	fix_post	2		12	72.0	2.5	/experiments/knapen_AOT/AOT_stimuli/rescaled_final/0727_fw.mp4	0.0	336.0871539115906	0.0998532772064209
75	318.1310269832611	fix_pre	0		120	73.0	2.5	/experiments/knapen_AOT/AOT_stimuli/rescaled_final/1415_rv.mp4	0.0	336.187007188797	1.0252151489257812
75	318.71465015411377	pulse	0	t		73.0	2.5	/experiments/knapen_AOT/AOT_stimuli/rescaled_final/1415_rv.mp4	0.0	336.77063035964966	
75	319.1562421321869	movie	1		261	73.0	2.5	/experiments/knapen_AOT/AOT_stimuli/rescaled_final/1415_rv.mp4	0.0	337.2122223377228	2.475738525390625
75	320.31431317329407	pulse	1	t		73.0	2.5	/experiments/knapen_AOT/AOT_stimuli/rescaled_final/1415_rv.mp4	0.0	338.37029337882996	
75	321.6319806575775	fix_post	2		12	73.0	2.5	/experiments/knapen_AOT/AOT_stimuli/rescaled_final/1415_rv.mp4	0.0	339.6879608631134	0.0996546745300293
76	321.73163533210754	fix_pre	0		120	74.0	2.5	/experiments/knapen_AOT/AOT_stimuli/rescaled_final/0301_rv.mp4	0.0	339.78761553764343	1.008420705795288
76	321.9153542518616	pulse	0	t		74.0	2.5	/experiments/knapen_AOT/AOT_stimuli/rescaled_final/0301_rv.mp4	0.0	339.97133445739746	
76	322.74005603790283	movie	1		280	74.0	2.5	/experiments/knapen_AOT/AOT_stimuli/rescaled_final/0301_rv.mp4	0.0	340.7960362434387	2.4921741485595703
76	323.51351714134216	pulse	1	t		74.0	2.5	/experiments/knapen_AOT/AOT_stimuli/rescaled_final/0301_rv.mp4	0.0	341.56949734687805	
76	325.1137821674347	pulse	1	t		74.0	2.5	/experiments/knapen_AOT/AOT_stimuli/rescaled_final/0301_rv.mp4	0.0	343.1697623729706	
76	325.2322301864624	fix_post	2		12	74.0	2.5	/experiments/knapen_AOT/AOT_stimuli/rescaled_final/0301_rv.mp4	0.0	343.2882103919983	0.10008764266967773
77	325.3323178291321	fix_pre	0		120	75.0	2.5	/experiments/knapen_AOT/AOT_stimuli/rescaled_final/0171_fw.mp4	0.0	343.38829803466797	1.008312463760376
77	326.34063029289246	movie	1		279	75.0	2.5	/experiments/knapen_AOT/AOT_stimuli/rescaled_final/0171_fw.mp4	0.0	344.39661049842834	2.4922993183135986
77	326.70892357826233	pulse	1	t		75.0	2.5	/experiments/knapen_AOT/AOT_stimuli/rescaled_final/0171_fw.mp4	0.0	344.7649037837982	
77	328.3078076839447	pulse	1	t		75.0	2.5	/experiments/knapen_AOT/AOT_stimuli/rescaled_final/0171_fw.mp4	0.0	346.3637878894806	
77	328.83292961120605	fix_post	2		12	75.0	2.5	/experiments/knapen_AOT/AOT_stimuli/rescaled_final/0171_fw.mp4	0.0	346.88890981674194	0.09976315498352051
78	328.9326927661896	fix_pre	0		118	76.0	2.5	blank	1.0	346.98867297172546	0.9834649562835693
78	329.9083287715912	pulse	0	t		76.0	2.5	blank	1.0	347.9643089771271	
78	329.91615772247314	movie	1		301	76.0	2.5	blank	1.0	347.97213792800903	2.5089528560638428
78	331.5083532333374	pulse	1	t		76.0	2.5	blank	1.0	349.5643334388733	
78	332.425110578537	fix_post	2		12	76.0	2.5	blank	1.0	350.4810907840729	0.09989500045776367
79	332.52500557899475	fix_pre	0		120	77.0	2.5	/experiments/knapen_AOT/AOT_stimuli/rescaled_final/0997_rv.mp4	0.0	350.58098578453064	1.0083503723144531
79	333.1085147857666	pulse	0	t		77.0	2.5	/experiments/knapen_AOT/AOT_stimuli/rescaled_final/0997_rv.mp4	0.0	351.1644949913025	
79	333.5333559513092	movie	1		282	77.0	2.5	/experiments/knapen_AOT/AOT_stimuli/rescaled_final/0997_rv.mp4	0.0	351.5893361568451	2.4921884536743164
79	334.70899653434753	pulse	1	t		77.0	2.5	/experiments/knapen_AOT/AOT_stimuli/rescaled_final/0997_rv.mp4	0.0	352.7649767398834	
79	336.0255444049835	fix_post	2		12	77.0	2.5	/experiments/knapen_AOT/AOT_stimuli/rescaled_final/0997_rv.mp4	0.0	354.0815246105194	0.09987640380859375
80	336.1254208087921	fix_pre	0		120	78.0	2.5	/experiments/knapen_AOT/AOT_stimuli/rescaled_final/0585_rv.mp4	0.0	354.181401014328	1.0087764263153076
80	336.3094482421875	pulse	0	t		78.0	2.5	/experiments/knapen_AOT/AOT_stimuli/rescaled_final/0585_rv.mp4	0.0	354.3654284477234	
80	337.1341972351074	movie	1		276	78.0	2.5	/experiments/knapen_AOT/AOT_stimuli/rescaled_final/0585_rv.mp4	0.0	355.1901774406433	2.491846799850464
80	337.9092411994934	pulse	1	t		78.0	2.5	/experiments/knapen_AOT/AOT_stimuli/rescaled_final/0585_rv.mp4	0.0	355.9652214050293	
80	339.5084762573242	pulse	1	t		78.0	2.5	/experiments/knapen_AOT/AOT_stimuli/rescaled_final/0585_rv.mp4	0.0	357.5644564628601	
80	339.6260440349579	fix_post	2		12	78.0	2.5	/experiments/knapen_AOT/AOT_stimuli/rescaled_final/0585_rv.mp4	0.0	357.6820242404938	0.09992861747741699
81	339.7259726524353	fix_pre	0		120	79.0	2.5	/experiments/knapen_AOT/AOT_stimuli/rescaled_final/1740_rv.mp4	0.0	357.7819528579712	1.0084383487701416
81	340.73441100120544	movie	1		264	79.0	2.5	/experiments/knapen_AOT/AOT_stimuli/rescaled_final/1740_rv.mp4	0.0	358.79039120674133	2.4922590255737305
81	341.1104278564453	pulse	1	t		79.0	2.5	/experiments/knapen_AOT/AOT_stimuli/rescaled_final/1740_rv.mp4	0.0	359.1664080619812	
81	342.7079517841339	pulse	1	t		79.0	2.5	/experiments/knapen_AOT/AOT_stimuli/rescaled_final/1740_rv.mp4	0.0	360.7639319896698	
81	343.2266700267792	fix_post	2		12	79.0	2.5	/experiments/knapen_AOT/AOT_stimuli/rescaled_final/1740_rv.mp4	0.0	361.28265023231506	0.09983134269714355
82	343.3265013694763	fix_pre	0		119	80.0	2.5	/experiments/knapen_AOT/AOT_stimuli/rescaled_final/1531_rv.mp4	0.0	361.3824815750122	1.0002071857452393
82	344.3102972507477	pulse	0	t		80.0	2.5	/experiments/knapen_AOT/AOT_stimuli/rescaled_final/1531_rv.mp4	0.0	362.36627745628357	
82	344.32670855522156	movie	1		272	80.0	2.5	/experiments/knapen_AOT/AOT_stimuli/rescaled_final/1531_rv.mp4	0.0	362.38268876075745	2.500469446182251
82	345.90911865234375	pulse	1	t		80.0	2.5	/experiments/knapen_AOT/AOT_stimuli/rescaled_final/1531_rv.mp4	0.0	363.96509885787964	
82	346.8271780014038	fix_post	2		12	80.0	2.5	/experiments/knapen_AOT/AOT_stimuli/rescaled_final/1531_rv.mp4	0.0	364.8831582069397	0.09988760948181152
83	346.9270656108856	fix_pre	0		120	81.0	2.5	/experiments/knapen_AOT/AOT_stimuli/rescaled_final/1739_fw.mp4	0.0	364.9830458164215	1.00858736038208
83	347.5106909275055	pulse	0	t		81.0	2.5	/experiments/knapen_AOT/AOT_stimuli/rescaled_final/1739_fw.mp4	0.0	365.5666711330414	
83	347.9356529712677	movie	1		264	81.0	2.5	/experiments/knapen_AOT/AOT_stimuli/rescaled_final/1739_fw.mp4	0.0	365.9916331768036	2.492314338684082
83	349.1094226837158	pulse	1	t		81.0	2.5	/experiments/knapen_AOT/AOT_stimuli/rescaled_final/1739_fw.mp4	0.0	367.1654028892517	
83	350.4279673099518	fix_post	2		12	81.0	2.5	/experiments/knapen_AOT/AOT_stimuli/rescaled_final/1739_fw.mp4	0.0	368.48394751548767	0.0996096134185791
84	350.52757692337036	fix_pre	0		120	82.0	2.5	blank	1.0	368.58355712890625	1.000175952911377
84	350.71117758750916	pulse	0	t		82.0	2.5	blank	1.0	368.76715779304504	
84	351.52775287628174	movie	1		300	82.0	2.5	blank	1.0	369.5837330818176	2.500401020050049
84	352.3114778995514	pulse	1	t		82.0	2.5	blank	1.0	370.3674581050873	
84	353.91166591644287	pulse	1	t		82.0	2.5	blank	1.0	371.96764612197876	
84	354.0281538963318	fix_post	2		12	82.0	2.5	blank	1.0	372.0841341018677	0.10000157356262207
85	354.1281554698944	fix_pre	0		120	83.0	2.5	/experiments/knapen_AOT/AOT_stimuli/rescaled_final/0044_fw.mp4	0.0	372.1841356754303	1.008453130722046
85	355.13660860061646	movie	1		266	83.0	2.5	/experiments/knapen_AOT/AOT_stimuli/rescaled_final/0044_fw.mp4	0.0	373.19258880615234	2.4925875663757324
85	355.5101306438446	pulse	1	t		83.0	2.5	/experiments/knapen_AOT/AOT_stimuli/rescaled_final/0044_fw.mp4	0.0	373.5661108493805	
85	357.1101140975952	pulse	1	t		83.0	2.5	/experiments/knapen_AOT/AOT_stimuli/rescaled_final/0044_fw.mp4	0.0	375.1660943031311	
85	357.6291961669922	fix_post	2		11	83.0	2.5	/experiments/knapen_AOT/AOT_stimuli/rescaled_final/0044_fw.mp4	0.0	375.6851763725281	0.11616706848144531
87	357.74536323547363	stim	0		1714					375.8013434410095	14.285461902618408
87	358.71243476867676	pulse	0	t						376.76841497421265	
87	360.3126437664032	pulse	0	t						378.3686239719391	
87	361.9128189086914	pulse	0	t						379.9687991142273	
87	363.5134217739105	pulse	0	t						381.5694019794464	
87	365.1133143901825	pulse	0	t						383.1692945957184	
87	366.71353363990784	pulse	0	t						384.7695138454437	
87	368.31382942199707	pulse	0	t						386.36980962753296	
87	369.9141206741333	pulse	0	t						387.9701008796692	
87	371.5142686367035	pulse	0	t						389.5702488422394	
