trial_nr	onset	event_type	phase	response	nr_frames	movie_index	movie_duration	movie_file	blank	onset_abs	duration
0	0.14959716796875	stim	0		29					20.627552032470703	0.24201393127441406
0	0.3834950923919678	response	0	space						20.86144995689392	
1	0.39161109924316406	stim	0		4848					20.869565963745117	40.39976906776428
1	40.78677296638489	pulse	0	t						61.26472783088684	
1	40.791380167007446	stim	1		1717					61.2693350315094	14.308264017105103
1	42.3828330039978	pulse	1	t						62.860787868499756	
1	43.98298215866089	pulse	1	t						64.46093702316284	
1	45.58313703536987	pulse	1	t						66.06109189987183	
1	47.18320417404175	pulse	1	t						67.6611590385437	
1	48.783185958862305	pulse	1	t						69.26114082336426	
1	50.38308906555176	pulse	1	t						70.86104393005371	
1	51.98317217826843	pulse	1	t						72.46112704277039	
1	53.58310914039612	pulse	1	t						74.06106400489807	
2	55.09964418411255	fix_pre	0		11	0.0	2.5	/experiments/AOT/AOT_stimuli/rescaled_final/1470_rv.mp4	0.0	75.5775990486145	0.09168076515197754
2	55.18317008018494	pulse	0	t		0.0	2.5	/experiments/AOT/AOT_stimuli/rescaled_final/1470_rv.mp4	0.0	75.66112494468689	
2	55.191324949264526	movie	1		244	0.0	2.5	/experiments/AOT/AOT_stimuli/rescaled_final/1470_rv.mp4	0.0	75.66927981376648	2.507850170135498
2	56.78290796279907	pulse	1	t		0.0	2.5	/experiments/AOT/AOT_stimuli/rescaled_final/1470_rv.mp4	0.0	77.26086282730103	
2	57.699175119400024	fix_post	2		12	0.0	2.5	/experiments/AOT/AOT_stimuli/rescaled_final/1470_rv.mp4	0.0	78.17712998390198	0.10047698020935059
3	57.799652099609375	fix_pre	0		120	1.0	2.5	/experiments/AOT/AOT_stimuli/rescaled_final/1501_fw.mp4	0.0	78.27760696411133	1.000040054321289
3	58.38315510749817	pulse	0	t		1.0	2.5	/experiments/AOT/AOT_stimuli/rescaled_final/1501_fw.mp4	0.0	78.86110997200012	
3	58.799692153930664	movie	1		246	1.0	2.5	/experiments/AOT/AOT_stimuli/rescaled_final/1501_fw.mp4	0.0	79.27764701843262	2.4999618530273438
3	59.98322415351868	pulse	1	t		1.0	2.5	/experiments/AOT/AOT_stimuli/rescaled_final/1501_fw.mp4	0.0	80.46117901802063	
3	61.29965400695801	fix_post	2		12	1.0	2.5	/experiments/AOT/AOT_stimuli/rescaled_final/1501_fw.mp4	0.0	81.77760887145996	0.09991216659545898
4	61.39956617355347	fix_pre	0		120	2.0	2.5	/experiments/AOT/AOT_stimuli/rescaled_final/0418_rv.mp4	0.0	81.87752103805542	1.0000669956207275
4	61.583065032958984	pulse	0	t		2.0	2.5	/experiments/AOT/AOT_stimuli/rescaled_final/0418_rv.mp4	0.0	82.06101989746094	
4	62.399633169174194	movie	1		246	2.0	2.5	/experiments/AOT/AOT_stimuli/rescaled_final/0418_rv.mp4	0.0	82.87758803367615	2.4999008178710938
4	63.1832001209259	pulse	1	t		2.0	2.5	/experiments/AOT/AOT_stimuli/rescaled_final/0418_rv.mp4	0.0	83.66115498542786	
4	64.781809091568	pulse	1	t		2.0	2.5	/experiments/AOT/AOT_stimuli/rescaled_final/0418_rv.mp4	0.0	85.25976395606995	
4	64.89953398704529	fix_post	2		12	2.0	2.5	/experiments/AOT/AOT_stimuli/rescaled_final/0418_rv.mp4	0.0	85.37748885154724	0.10014009475708008
5	64.99967408180237	fix_pre	0		120	3.0	2.5	/experiments/AOT/AOT_stimuli/rescaled_final/0598_rv.mp4	0.0	85.47762894630432	0.9999289512634277
5	65.9996030330658	movie	1		249	3.0	2.5	/experiments/AOT/AOT_stimuli/rescaled_final/0598_rv.mp4	0.0	86.47755789756775	2.499624013900757
5	66.38264918327332	pulse	1	t		3.0	2.5	/experiments/AOT/AOT_stimuli/rescaled_final/0598_rv.mp4	0.0	86.86060404777527	
5	67.98320007324219	pulse	1	t		3.0	2.5	/experiments/AOT/AOT_stimuli/rescaled_final/0598_rv.mp4	0.0	88.46115493774414	
5	68.49922704696655	fix_post	2		12	3.0	2.5	/experiments/AOT/AOT_stimuli/rescaled_final/0598_rv.mp4	0.0	88.9771819114685	0.0999901294708252
6	68.59921717643738	fix_pre	0		119	4.0	2.5	/experiments/AOT/AOT_stimuli/rescaled_final/1447_fw.mp4	0.0	89.07717204093933	0.9919569492340088
6	69.58300614356995	pulse	0	t		4.0	2.5	/experiments/AOT/AOT_stimuli/rescaled_final/1447_fw.mp4	0.0	90.0609610080719	
6	69.59117412567139	movie	1		244	4.0	2.5	/experiments/AOT/AOT_stimuli/rescaled_final/1447_fw.mp4	0.0	90.06912899017334	2.5084400177001953
6	71.18303894996643	pulse	1	t		4.0	2.5	/experiments/AOT/AOT_stimuli/rescaled_final/1447_fw.mp4	0.0	91.66099381446838	
6	72.09961414337158	fix_post	2		12	4.0	2.5	/experiments/AOT/AOT_stimuli/rescaled_final/1447_fw.mp4	0.0	92.57756900787354	0.10003280639648438
7	72.19964694976807	fix_pre	0		120	5.0	2.5	/experiments/AOT/AOT_stimuli/rescaled_final/0214_fw.mp4	0.0	92.67760181427002	0.9999651908874512
7	72.78304505348206	pulse	0	t		5.0	2.5	/experiments/AOT/AOT_stimuli/rescaled_final/0214_fw.mp4	0.0	93.26099991798401	
7	73.19961214065552	movie	1		243	5.0	2.5	/experiments/AOT/AOT_stimuli/rescaled_final/0214_fw.mp4	0.0	93.67756700515747	2.4999449253082275
7	74.38305401802063	pulse	1	t		5.0	2.5	/experiments/AOT/AOT_stimuli/rescaled_final/0214_fw.mp4	0.0	94.86100888252258	
7	75.69955706596375	fix_post	2		12	5.0	2.5	/experiments/AOT/AOT_stimuli/rescaled_final/0214_fw.mp4	0.0	96.1775119304657	0.10004305839538574
8	75.79960012435913	fix_pre	0		120	6.0	2.5	blank	1.0	96.27755498886108	0.9994838237762451
8	75.98321795463562	pulse	0	t		6.0	2.5	blank	1.0	96.46117281913757	
8	76.79908394813538	movie	1		300	6.0	2.5	blank	1.0	97.27703881263733	2.500521183013916
8	77.58305406570435	pulse	1	t		6.0	2.5	blank	1.0	98.0610089302063	
8	79.1829161643982	pulse	1	t		6.0	2.5	blank	1.0	99.66087102890015	
8	79.29960513114929	fix_post	2		12	6.0	2.5	blank	1.0	99.77755999565125	0.0999758243560791
9	79.39958095550537	fix_pre	0		120	7.0	2.5	/experiments/AOT/AOT_stimuli/rescaled_final/1180_fw.mp4	0.0	99.87753582000732	0.999932050704956
9	80.39951300621033	movie	1		244	7.0	2.5	/experiments/AOT/AOT_stimuli/rescaled_final/1180_fw.mp4	0.0	100.87746787071228	2.4999911785125732
9	80.78322100639343	pulse	1	t		7.0	2.5	/experiments/AOT/AOT_stimuli/rescaled_final/1180_fw.mp4	0.0	101.26117587089539	
9	82.38307404518127	pulse	1	t		7.0	2.5	/experiments/AOT/AOT_stimuli/rescaled_final/1180_fw.mp4	0.0	102.86102890968323	
9	82.8995041847229	fix_post	2		12	7.0	2.5	/experiments/AOT/AOT_stimuli/rescaled_final/1180_fw.mp4	0.0	103.37745904922485	0.10003495216369629
10	82.9995391368866	fix_pre	0		119	8.0	2.5	/experiments/AOT/AOT_stimuli/rescaled_final/1532_rv.mp4	0.0	103.47749400138855	0.9917340278625488
10	83.98301696777344	pulse	0	t		8.0	2.5	/experiments/AOT/AOT_stimuli/rescaled_final/1532_rv.mp4	0.0	104.46097183227539	
10	83.99127316474915	movie	1		245	8.0	2.5	/experiments/AOT/AOT_stimuli/rescaled_final/1532_rv.mp4	0.0	104.4692280292511	2.508188009262085
10	85.58269715309143	pulse	1	t		8.0	2.5	/experiments/AOT/AOT_stimuli/rescaled_final/1532_rv.mp4	0.0	106.06065201759338	
10	86.49946117401123	fix_post	2		12	8.0	2.5	/experiments/AOT/AOT_stimuli/rescaled_final/1532_rv.mp4	0.0	106.97741603851318	0.10001087188720703
11	86.59947204589844	fix_pre	0		120	9.0	2.5	/experiments/AOT/AOT_stimuli/rescaled_final/0589_fw.mp4	0.0	107.07742691040039	1.0001261234283447
11	87.18300008773804	pulse	0	t		9.0	2.5	/experiments/AOT/AOT_stimuli/rescaled_final/0589_fw.mp4	0.0	107.66095495223999	
11	87.59959816932678	movie	1		246	9.0	2.5	/experiments/AOT/AOT_stimuli/rescaled_final/0589_fw.mp4	0.0	108.07755303382874	2.4999589920043945
11	88.78304505348206	pulse	1	t		9.0	2.5	/experiments/AOT/AOT_stimuli/rescaled_final/0589_fw.mp4	0.0	109.26099991798401	
11	90.09955716133118	fix_post	2		12	9.0	2.5	/experiments/AOT/AOT_stimuli/rescaled_final/0589_fw.mp4	0.0	110.57751202583313	0.09997391700744629
12	90.19953107833862	fix_pre	0		120	10.0	2.5	/experiments/AOT/AOT_stimuli/rescaled_final/0879_fw.mp4	0.0	110.67748594284058	1.000035047531128
12	90.38299918174744	pulse	0	t		10.0	2.5	/experiments/AOT/AOT_stimuli/rescaled_final/0879_fw.mp4	0.0	110.86095404624939	
12	91.19956612586975	movie	1		244	10.0	2.5	/experiments/AOT/AOT_stimuli/rescaled_final/0879_fw.mp4	0.0	111.6775209903717	2.499526023864746
12	91.98297715187073	pulse	1	t		10.0	2.5	/experiments/AOT/AOT_stimuli/rescaled_final/0879_fw.mp4	0.0	112.46093201637268	
12	93.58175897598267	pulse	1	t		10.0	2.5	/experiments/AOT/AOT_stimuli/rescaled_final/0879_fw.mp4	0.0	114.05971384048462	
12	93.6990921497345	fix_post	2		12	10.0	2.5	/experiments/AOT/AOT_stimuli/rescaled_final/0879_fw.mp4	0.0	114.17704701423645	0.10042595863342285
13	93.79951810836792	fix_pre	0		120	11.0	2.5	/experiments/AOT/AOT_stimuli/rescaled_final/1293_rv.mp4	0.0	114.27747297286987	1.0000278949737549
13	94.79954600334167	movie	1		243	11.0	2.5	/experiments/AOT/AOT_stimuli/rescaled_final/1293_rv.mp4	0.0	115.27750086784363	2.4995391368865967
13	95.18254709243774	pulse	1	t		11.0	2.5	/experiments/AOT/AOT_stimuli/rescaled_final/1293_rv.mp4	0.0	115.6605019569397	
13	96.78286814689636	pulse	1	t		11.0	2.5	/experiments/AOT/AOT_stimuli/rescaled_final/1293_rv.mp4	0.0	117.26082301139832	
13	97.29908514022827	fix_post	2		12	11.0	2.5	/experiments/AOT/AOT_stimuli/rescaled_final/1293_rv.mp4	0.0	117.77704000473022	0.10051393508911133
14	97.39959907531738	fix_pre	0		119	12.0	2.5	/experiments/AOT/AOT_stimuli/rescaled_final/2118_rv.mp4	0.0	117.87755393981934	0.9912109375
14	98.3825991153717	pulse	0	t		12.0	2.5	/experiments/AOT/AOT_stimuli/rescaled_final/2118_rv.mp4	0.0	118.86055397987366	
14	98.39081001281738	movie	1		247	12.0	2.5	/experiments/AOT/AOT_stimuli/rescaled_final/2118_rv.mp4	0.0	118.86876487731934	2.5086729526519775
14	99.9822461605072	pulse	1	t		12.0	2.5	/experiments/AOT/AOT_stimuli/rescaled_final/2118_rv.mp4	0.0	120.46020102500916	
14	100.89948296546936	fix_post	2		12	12.0	2.5	/experiments/AOT/AOT_stimuli/rescaled_final/2118_rv.mp4	0.0	121.37743782997131	0.09992003440856934
15	100.99940299987793	fix_pre	0		120	13.0	2.5	blank	1.0	121.47735786437988	0.999629020690918
15	101.58413696289062	pulse	0	t		13.0	2.5	blank	1.0	122.06209182739258	
15	101.99903202056885	movie	1		300	13.0	2.5	blank	1.0	122.4769868850708	2.500465154647827
15	103.18289804458618	pulse	1	t		13.0	2.5	blank	1.0	123.66085290908813	
15	104.49949717521667	fix_post	2		12	13.0	2.5	blank	1.0	124.97745203971863	0.09992599487304688
16	104.59942317008972	fix_pre	0		120	14.0	2.5	/experiments/AOT/AOT_stimuli/rescaled_final/1069_rv.mp4	0.0	125.07737803459167	0.9995830059051514
16	104.78305411338806	pulse	0	t		14.0	2.5	/experiments/AOT/AOT_stimuli/rescaled_final/1069_rv.mp4	0.0	125.26100897789001	
16	105.59900617599487	movie	1		245	14.0	2.5	/experiments/AOT/AOT_stimuli/rescaled_final/1069_rv.mp4	0.0	126.07696104049683	2.500422954559326
16	106.38281011581421	pulse	1	t		14.0	2.5	/experiments/AOT/AOT_stimuli/rescaled_final/1069_rv.mp4	0.0	126.86076498031616	
16	107.98116302490234	pulse	1	t		14.0	2.5	/experiments/AOT/AOT_stimuli/rescaled_final/1069_rv.mp4	0.0	128.4591178894043	
16	108.0994291305542	fix_post	2		12	14.0	2.5	/experiments/AOT/AOT_stimuli/rescaled_final/1069_rv.mp4	0.0	128.57738399505615	0.10001182556152344
17	108.19944095611572	fix_pre	0		120	15.0	2.5	/experiments/AOT/AOT_stimuli/rescaled_final/0162_rv.mp4	0.0	128.67739582061768	0.9999561309814453
17	109.19939708709717	movie	1		245	15.0	2.5	/experiments/AOT/AOT_stimuli/rescaled_final/0162_rv.mp4	0.0	129.67735195159912	2.500019073486328
17	109.58245611190796	pulse	1	t		15.0	2.5	/experiments/AOT/AOT_stimuli/rescaled_final/0162_rv.mp4	0.0	130.0604109764099	
17	111.18282794952393	pulse	1	t		15.0	2.5	/experiments/AOT/AOT_stimuli/rescaled_final/0162_rv.mp4	0.0	131.66078281402588	
17	111.6994161605835	fix_post	2		12	15.0	2.5	/experiments/AOT/AOT_stimuli/rescaled_final/0162_rv.mp4	0.0	132.17737102508545	0.10002779960632324
18	111.79944396018982	fix_pre	0		119	16.0	2.5	/experiments/AOT/AOT_stimuli/rescaled_final/1941_rv.mp4	0.0	132.27739882469177	0.9916050434112549
18	112.7828381061554	pulse	0	t		16.0	2.5	/experiments/AOT/AOT_stimuli/rescaled_final/1941_rv.mp4	0.0	133.26079297065735	
18	112.79104900360107	movie	1		244	16.0	2.5	/experiments/AOT/AOT_stimuli/rescaled_final/1941_rv.mp4	0.0	133.26900386810303	2.5083401203155518
18	114.38280010223389	pulse	1	t		16.0	2.5	/experiments/AOT/AOT_stimuli/rescaled_final/1941_rv.mp4	0.0	134.86075496673584	
18	115.29938912391663	fix_post	2		12	16.0	2.5	/experiments/AOT/AOT_stimuli/rescaled_final/1941_rv.mp4	0.0	135.77734398841858	0.0999908447265625
19	115.39937996864319	fix_pre	0		120	17.0	2.5	/experiments/AOT/AOT_stimuli/rescaled_final/0560_fw.mp4	0.0	135.87733483314514	1.000049114227295
19	115.98275899887085	pulse	0	t		17.0	2.5	/experiments/AOT/AOT_stimuli/rescaled_final/0560_fw.mp4	0.0	136.4607138633728	
19	116.39942908287048	movie	1		245	17.0	2.5	/experiments/AOT/AOT_stimuli/rescaled_final/0560_fw.mp4	0.0	136.87738394737244	2.4994828701019287
19	117.58282804489136	pulse	1	t		17.0	2.5	/experiments/AOT/AOT_stimuli/rescaled_final/0560_fw.mp4	0.0	138.0607829093933	
19	118.89891195297241	fix_post	2		12	17.0	2.5	/experiments/AOT/AOT_stimuli/rescaled_final/0560_fw.mp4	0.0	139.37686681747437	0.10047507286071777
20	118.99938702583313	fix_pre	0		120	18.0	2.5	/experiments/AOT/AOT_stimuli/rescaled_final/0273_rv.mp4	0.0	139.47734189033508	0.9999980926513672
20	119.18281102180481	pulse	0	t		18.0	2.5	/experiments/AOT/AOT_stimuli/rescaled_final/0273_rv.mp4	0.0	139.66076588630676	
20	119.9993851184845	movie	1		243	18.0	2.5	/experiments/AOT/AOT_stimuli/rescaled_final/0273_rv.mp4	0.0	140.47733998298645	2.500025987625122
20	120.78303694725037	pulse	1	t		18.0	2.5	/experiments/AOT/AOT_stimuli/rescaled_final/0273_rv.mp4	0.0	141.26099181175232	
20	122.38127708435059	pulse	1	t		18.0	2.5	/experiments/AOT/AOT_stimuli/rescaled_final/0273_rv.mp4	0.0	142.85923194885254	
20	122.49941110610962	fix_post	2		12	18.0	2.5	/experiments/AOT/AOT_stimuli/rescaled_final/0273_rv.mp4	0.0	142.97736597061157	0.09998297691345215
21	122.59939408302307	fix_pre	0		120	19.0	2.5	/experiments/AOT/AOT_stimuli/rescaled_final/1625_fw.mp4	0.0	143.07734894752502	1.0000479221343994
21	123.59944200515747	movie	1		244	19.0	2.5	/experiments/AOT/AOT_stimuli/rescaled_final/1625_fw.mp4	0.0	144.07739686965942	2.4999430179595947
21	123.98289799690247	pulse	1	t		19.0	2.5	/experiments/AOT/AOT_stimuli/rescaled_final/1625_fw.mp4	0.0	144.46085286140442	
21	125.58277797698975	pulse	1	t		19.0	2.5	/experiments/AOT/AOT_stimuli/rescaled_final/1625_fw.mp4	0.0	146.0607328414917	
21	126.09938502311707	fix_post	2		12	19.0	2.5	/experiments/AOT/AOT_stimuli/rescaled_final/1625_fw.mp4	0.0	146.57733988761902	0.09996199607849121
22	126.19934701919556	fix_pre	0		119	20.0	2.5	blank	1.0	146.6773018836975	0.9916689395904541
22	127.18282794952393	pulse	0	t		20.0	2.5	blank	1.0	147.66078281402588	
22	127.19101595878601	movie	1		301	20.0	2.5	blank	1.0	147.66897082328796	2.5082430839538574
22	128.78270196914673	pulse	1	t		20.0	2.5	blank	1.0	149.26065683364868	
22	129.69925904273987	fix_post	2		12	20.0	2.5	blank	1.0	150.17721390724182	0.09965300559997559
23	129.79891204833984	fix_pre	0		120	21.0	2.5	/experiments/AOT/AOT_stimuli/rescaled_final/1546_rv.mp4	0.0	150.2768669128418	1.0003910064697266
23	130.3827531337738	pulse	0	t		21.0	2.5	/experiments/AOT/AOT_stimuli/rescaled_final/1546_rv.mp4	0.0	150.86070799827576	
23	130.79930305480957	movie	1		244	21.0	2.5	/experiments/AOT/AOT_stimuli/rescaled_final/1546_rv.mp4	0.0	151.27725791931152	2.4998409748077393
23	131.98280906677246	pulse	1	t		21.0	2.5	/experiments/AOT/AOT_stimuli/rescaled_final/1546_rv.mp4	0.0	152.4607639312744	
23	133.2991440296173	fix_post	2		12	21.0	2.5	/experiments/AOT/AOT_stimuli/rescaled_final/1546_rv.mp4	0.0	153.77709889411926	0.10021400451660156
24	133.3993580341339	fix_pre	0		120	22.0	2.5	/experiments/AOT/AOT_stimuli/rescaled_final/1355_rv.mp4	0.0	153.87731289863586	1.000014066696167
24	133.58272004127502	pulse	0	t		22.0	2.5	/experiments/AOT/AOT_stimuli/rescaled_final/1355_rv.mp4	0.0	154.06067490577698	
24	134.39937210083008	movie	1		244	22.0	2.5	/experiments/AOT/AOT_stimuli/rescaled_final/1355_rv.mp4	0.0	154.87732696533203	2.500019073486328
24	135.18264603614807	pulse	1	t		22.0	2.5	/experiments/AOT/AOT_stimuli/rescaled_final/1355_rv.mp4	0.0	155.66060090065002	
24	136.78131914138794	pulse	1	t		22.0	2.5	/experiments/AOT/AOT_stimuli/rescaled_final/1355_rv.mp4	0.0	157.2592740058899	
24	136.8993911743164	fix_post	2		12	22.0	2.5	/experiments/AOT/AOT_stimuli/rescaled_final/1355_rv.mp4	0.0	157.37734603881836	0.09999585151672363
25	136.99938702583313	fix_pre	0		120	23.0	2.5	/experiments/AOT/AOT_stimuli/rescaled_final/1517_fw.mp4	0.0	157.47734189033508	0.9996111392974854
25	137.99899816513062	movie	1		244	23.0	2.5	/experiments/AOT/AOT_stimuli/rescaled_final/1517_fw.mp4	0.0	158.47695302963257	2.5002188682556152
25	138.38380408287048	pulse	1	t		23.0	2.5	/experiments/AOT/AOT_stimuli/rescaled_final/1517_fw.mp4	0.0	158.86175894737244	
25	139.98272609710693	pulse	1	t		23.0	2.5	/experiments/AOT/AOT_stimuli/rescaled_final/1517_fw.mp4	0.0	160.4606809616089	
25	140.49921703338623	fix_post	2		12	23.0	2.5	/experiments/AOT/AOT_stimuli/rescaled_final/1517_fw.mp4	0.0	160.97717189788818	0.10006499290466309
26	140.5992820262909	fix_pre	0		119	24.0	2.5	/experiments/AOT/AOT_stimuli/rescaled_final/1637_rv.mp4	0.0	161.07723689079285	0.9916009902954102
26	141.58272314071655	pulse	0	t		24.0	2.5	/experiments/AOT/AOT_stimuli/rescaled_final/1637_rv.mp4	0.0	162.0606780052185	
26	141.5908830165863	movie	1		244	24.0	2.5	/experiments/AOT/AOT_stimuli/rescaled_final/1637_rv.mp4	0.0	162.06883788108826	2.508234977722168
26	143.18200302124023	pulse	1	t		24.0	2.5	/experiments/AOT/AOT_stimuli/rescaled_final/1637_rv.mp4	0.0	163.6599578857422	
26	144.09911799430847	fix_post	2		12	24.0	2.5	/experiments/AOT/AOT_stimuli/rescaled_final/1637_rv.mp4	0.0	164.57707285881042	0.10011696815490723
27	144.19923496246338	fix_pre	0		120	25.0	2.5	/experiments/AOT/AOT_stimuli/rescaled_final/0087_fw.mp4	0.0	164.67718982696533	1.0000860691070557
27	144.78272199630737	pulse	0	t		25.0	2.5	/experiments/AOT/AOT_stimuli/rescaled_final/0087_fw.mp4	0.0	165.26067686080933	
27	145.19932103157043	movie	1		244	25.0	2.5	/experiments/AOT/AOT_stimuli/rescaled_final/0087_fw.mp4	0.0	165.6772758960724	2.500020980834961
27	146.38275694847107	pulse	1	t		25.0	2.5	/experiments/AOT/AOT_stimuli/rescaled_final/0087_fw.mp4	0.0	166.86071181297302	
27	147.6993420124054	fix_post	2		12	25.0	2.5	/experiments/AOT/AOT_stimuli/rescaled_final/0087_fw.mp4	0.0	168.17729687690735	0.0999441146850586
28	147.79928612709045	fix_pre	0		120	26.0	2.5	/experiments/AOT/AOT_stimuli/rescaled_final/1516_fw.mp4	0.0	168.2772409915924	0.9999399185180664
28	147.98267912864685	pulse	0	t		26.0	2.5	/experiments/AOT/AOT_stimuli/rescaled_final/1516_fw.mp4	0.0	168.4606339931488	
28	148.79922604560852	movie	1		243	26.0	2.5	/experiments/AOT/AOT_stimuli/rescaled_final/1516_fw.mp4	0.0	169.27718091011047	2.5000479221343994
28	149.58272099494934	pulse	1	t		26.0	2.5	/experiments/AOT/AOT_stimuli/rescaled_final/1516_fw.mp4	0.0	170.0606758594513	
28	151.19114804267883	pulse	1	t		26.0	2.5	/experiments/AOT/AOT_stimuli/rescaled_final/1516_fw.mp4	0.0	171.6691029071808	
28	151.29927396774292	fix_post	2		12	26.0	2.5	/experiments/AOT/AOT_stimuli/rescaled_final/1516_fw.mp4	0.0	171.77722883224487	0.10006499290466309
29	151.39933896064758	fix_pre	0		120	27.0	2.5	blank	1.0	171.87729382514954	0.999967098236084
29	152.39930605888367	movie	1		300	27.0	2.5	blank	1.0	172.87726092338562	2.4999539852142334
29	152.78267812728882	pulse	1	t		27.0	2.5	blank	1.0	173.26063299179077	
29	154.38220310211182	pulse	1	t		27.0	2.5	blank	1.0	174.86015796661377	
29	154.8992600440979	fix_post	2		12	27.0	2.5	blank	1.0	175.37721490859985	0.10001111030578613
30	154.9992711544037	fix_pre	0		119	28.0	2.5	/experiments/AOT/AOT_stimuli/rescaled_final/0533_rv.mp4	0.0	175.47722601890564	0.9919149875640869
30	155.98289012908936	pulse	0	t		28.0	2.5	/experiments/AOT/AOT_stimuli/rescaled_final/0533_rv.mp4	0.0	176.4608449935913	
30	155.99118614196777	movie	1		245	28.0	2.5	/experiments/AOT/AOT_stimuli/rescaled_final/0533_rv.mp4	0.0	176.46914100646973	2.5075929164886475
30	157.58233904838562	pulse	1	t		28.0	2.5	/experiments/AOT/AOT_stimuli/rescaled_final/0533_rv.mp4	0.0	178.06029391288757	
30	158.49877905845642	fix_post	2		12	28.0	2.5	/experiments/AOT/AOT_stimuli/rescaled_final/0533_rv.mp4	0.0	178.97673392295837	0.1005411148071289
31	158.59932017326355	fix_pre	0		120	29.0	2.5	/experiments/AOT/AOT_stimuli/rescaled_final/0978_fw.mp4	0.0	179.0772750377655	0.9999289512634277
31	159.18271708488464	pulse	0	t		29.0	2.5	/experiments/AOT/AOT_stimuli/rescaled_final/0978_fw.mp4	0.0	179.6606719493866	
31	159.59924912452698	movie	1		244	29.0	2.5	/experiments/AOT/AOT_stimuli/rescaled_final/0978_fw.mp4	0.0	180.07720398902893	2.499614953994751
31	160.78268003463745	pulse	1	t		29.0	2.5	/experiments/AOT/AOT_stimuli/rescaled_final/0978_fw.mp4	0.0	181.2606348991394	
31	162.09886407852173	fix_post	2		12	29.0	2.5	/experiments/AOT/AOT_stimuli/rescaled_final/0978_fw.mp4	0.0	182.57681894302368	0.09994792938232422
32	162.19881200790405	fix_pre	0		120	30.0	2.5	/experiments/AOT/AOT_stimuli/rescaled_final/0481_fw.mp4	0.0	182.676766872406	1.0003471374511719
32	162.38259315490723	pulse	0	t		30.0	2.5	/experiments/AOT/AOT_stimuli/rescaled_final/0481_fw.mp4	0.0	182.86054801940918	
32	163.19915914535522	movie	1		244	30.0	2.5	/experiments/AOT/AOT_stimuli/rescaled_final/0481_fw.mp4	0.0	183.67711400985718	2.500001907348633
32	163.9826409816742	pulse	1	t		30.0	2.5	/experiments/AOT/AOT_stimuli/rescaled_final/0481_fw.mp4	0.0	184.46059584617615	
32	165.5812201499939	pulse	1	t		30.0	2.5	/experiments/AOT/AOT_stimuli/rescaled_final/0481_fw.mp4	0.0	186.05917501449585	
32	165.69916105270386	fix_post	2		12	30.0	2.5	/experiments/AOT/AOT_stimuli/rescaled_final/0481_fw.mp4	0.0	186.1771159172058	0.10011005401611328
33	165.79927110671997	fix_pre	0		120	31.0	2.5	/experiments/AOT/AOT_stimuli/rescaled_final/0978_rv.mp4	0.0	186.27722597122192	0.9998290538787842
33	166.79910016059875	movie	1		243	31.0	2.5	/experiments/AOT/AOT_stimuli/rescaled_final/0978_rv.mp4	0.0	187.2770550251007	2.5000128746032715
33	167.18222999572754	pulse	1	t		31.0	2.5	/experiments/AOT/AOT_stimuli/rescaled_final/0978_rv.mp4	0.0	187.6601848602295	
33	168.7825629711151	pulse	1	t		31.0	2.5	/experiments/AOT/AOT_stimuli/rescaled_final/0978_rv.mp4	0.0	189.26051783561707	
33	169.29911303520203	fix_post	2		12	31.0	2.5	/experiments/AOT/AOT_stimuli/rescaled_final/0978_rv.mp4	0.0	189.77706789970398	0.1000220775604248
34	169.39913511276245	fix_pre	0		119	32.0	2.5	/experiments/AOT/AOT_stimuli/rescaled_final/0849_fw.mp4	0.0	189.8770899772644	0.9917068481445312
34	170.38256311416626	pulse	0	t		32.0	2.5	/experiments/AOT/AOT_stimuli/rescaled_final/0849_fw.mp4	0.0	190.8605179786682	
34	170.39084196090698	movie	1		245	32.0	2.5	/experiments/AOT/AOT_stimuli/rescaled_final/0849_fw.mp4	0.0	190.86879682540894	2.5078461170196533
34	171.98252701759338	pulse	1	t		32.0	2.5	/experiments/AOT/AOT_stimuli/rescaled_final/0849_fw.mp4	0.0	192.46048188209534	
34	172.89868807792664	fix_post	2		12	32.0	2.5	/experiments/AOT/AOT_stimuli/rescaled_final/0849_fw.mp4	0.0	193.3766429424286	0.1004190444946289
35	172.99910712242126	fix_pre	0		120	33.0	2.5	/experiments/AOT/AOT_stimuli/rescaled_final/0208_fw.mp4	0.0	193.47706198692322	0.9995510578155518
35	173.58260703086853	pulse	0	t		33.0	2.5	/experiments/AOT/AOT_stimuli/rescaled_final/0208_fw.mp4	0.0	194.06056189537048	
35	173.99865818023682	movie	1		244	33.0	2.5	/experiments/AOT/AOT_stimuli/rescaled_final/0208_fw.mp4	0.0	194.47661304473877	2.5004138946533203
35	175.18265509605408	pulse	1	t		33.0	2.5	/experiments/AOT/AOT_stimuli/rescaled_final/0208_fw.mp4	0.0	195.66060996055603	
35	176.49907207489014	fix_post	2		12	33.0	2.5	/experiments/AOT/AOT_stimuli/rescaled_final/0208_fw.mp4	0.0	196.9770269393921	0.10001587867736816
36	176.5990879535675	fix_pre	0		120	34.0	2.5	/experiments/AOT/AOT_stimuli/rescaled_final/2086_fw.mp4	0.0	197.07704281806946	1.000028133392334
36	176.78255796432495	pulse	0	t		34.0	2.5	/experiments/AOT/AOT_stimuli/rescaled_final/2086_fw.mp4	0.0	197.2605128288269	
36	177.59911608695984	movie	1		246	34.0	2.5	/experiments/AOT/AOT_stimuli/rescaled_final/2086_fw.mp4	0.0	198.0770709514618	2.499948024749756
36	178.38246512413025	pulse	1	t		34.0	2.5	/experiments/AOT/AOT_stimuli/rescaled_final/2086_fw.mp4	0.0	198.8604199886322	
36	179.9809329509735	pulse	1	t		34.0	2.5	/experiments/AOT/AOT_stimuli/rescaled_final/2086_fw.mp4	0.0	200.45888781547546	
36	180.0990641117096	fix_post	2		12	34.0	2.5	/experiments/AOT/AOT_stimuli/rescaled_final/2086_fw.mp4	0.0	200.57701897621155	0.09999704360961914
37	180.1990611553192	fix_pre	0		120	35.0	2.5	blank	1.0	200.67701601982117	1.000013828277588
37	181.1990749835968	movie	1		300	35.0	2.5	blank	1.0	201.67702984809875	2.4999990463256836
37	181.58255004882812	pulse	1	t		35.0	2.5	blank	1.0	202.06050491333008	
37	183.18250513076782	pulse	1	t		35.0	2.5	blank	1.0	203.66045999526978	
37	183.69907402992249	fix_post	2		12	35.0	2.5	blank	1.0	204.17702889442444	0.10001111030578613
38	183.79908514022827	fix_pre	0		119	36.0	2.5	/experiments/AOT/AOT_stimuli/rescaled_final/1242_rv.mp4	0.0	204.27704000473022	0.9916179180145264
38	184.78246808052063	pulse	0	t		36.0	2.5	/experiments/AOT/AOT_stimuli/rescaled_final/1242_rv.mp4	0.0	205.26042294502258	
38	184.7907030582428	movie	1		245	36.0	2.5	/experiments/AOT/AOT_stimuli/rescaled_final/1242_rv.mp4	0.0	205.26865792274475	2.5083329677581787
38	186.38230109214783	pulse	1	t		36.0	2.5	/experiments/AOT/AOT_stimuli/rescaled_final/1242_rv.mp4	0.0	206.86025595664978	
38	187.29903602600098	fix_post	2		12	36.0	2.5	/experiments/AOT/AOT_stimuli/rescaled_final/1242_rv.mp4	0.0	207.77699089050293	0.10003209114074707
39	187.39906811714172	fix_pre	0		120	37.0	2.5	/experiments/AOT/AOT_stimuli/rescaled_final/1610_fw.mp4	0.0	207.87702298164368	0.9999339580535889
39	187.9824721813202	pulse	0	t		37.0	2.5	/experiments/AOT/AOT_stimuli/rescaled_final/1610_fw.mp4	0.0	208.46042704582214	
39	188.3990020751953	movie	1		243	37.0	2.5	/experiments/AOT/AOT_stimuli/rescaled_final/1610_fw.mp4	0.0	208.87695693969727	2.4999799728393555
39	189.58249616622925	pulse	1	t		37.0	2.5	/experiments/AOT/AOT_stimuli/rescaled_final/1610_fw.mp4	0.0	210.0604510307312	
39	190.89898204803467	fix_post	2		12	37.0	2.5	/experiments/AOT/AOT_stimuli/rescaled_final/1610_fw.mp4	0.0	211.37693691253662	0.10003089904785156
40	190.99901294708252	fix_pre	0		120	38.0	2.5	/experiments/AOT/AOT_stimuli/rescaled_final/0265_fw.mp4	0.0	211.47696781158447	0.9999761581420898
40	191.18243718147278	pulse	0	t		38.0	2.5	/experiments/AOT/AOT_stimuli/rescaled_final/0265_fw.mp4	0.0	211.66039204597473	
40	191.9989891052246	movie	1		244	38.0	2.5	/experiments/AOT/AOT_stimuli/rescaled_final/0265_fw.mp4	0.0	212.47694396972656	2.500041961669922
40	192.7824740409851	pulse	1	t		38.0	2.5	/experiments/AOT/AOT_stimuli/rescaled_final/0265_fw.mp4	0.0	213.26042890548706	
40	194.38124012947083	pulse	1	t		38.0	2.5	/experiments/AOT/AOT_stimuli/rescaled_final/0265_fw.mp4	0.0	214.85919499397278	
40	194.49903106689453	fix_post	2		12	38.0	2.5	/experiments/AOT/AOT_stimuli/rescaled_final/0265_fw.mp4	0.0	214.97698593139648	0.09993505477905273
41	194.59896612167358	fix_pre	0		120	39.0	2.5	/experiments/AOT/AOT_stimuli/rescaled_final/0997_fw.mp4	0.0	215.07692098617554	1.0000598430633545
41	195.59902596473694	movie	1		247	39.0	2.5	/experiments/AOT/AOT_stimuli/rescaled_final/0997_fw.mp4	0.0	216.0769808292389	2.4995510578155518
41	195.982017993927	pulse	1	t		39.0	2.5	/experiments/AOT/AOT_stimuli/rescaled_final/0997_fw.mp4	0.0	216.45997285842896	
41	197.58247804641724	pulse	1	t		39.0	2.5	/experiments/AOT/AOT_stimuli/rescaled_final/0997_fw.mp4	0.0	218.0604329109192	
41	198.0985770225525	fix_post	2		12	39.0	2.5	/experiments/AOT/AOT_stimuli/rescaled_final/0997_fw.mp4	0.0	218.57653188705444	0.10053706169128418
42	198.19911408424377	fix_pre	0		119	40.0	2.5	/experiments/AOT/AOT_stimuli/rescaled_final/1872_rv.mp4	0.0	218.67706894874573	0.9916439056396484
42	199.1825110912323	pulse	0	t		40.0	2.5	/experiments/AOT/AOT_stimuli/rescaled_final/1872_rv.mp4	0.0	219.66046595573425	
42	199.19075798988342	movie	1		244	40.0	2.5	/experiments/AOT/AOT_stimuli/rescaled_final/1872_rv.mp4	0.0	219.66871285438538	2.5082180500030518
42	200.78183007240295	pulse	1	t		40.0	2.5	/experiments/AOT/AOT_stimuli/rescaled_final/1872_rv.mp4	0.0	221.2597849369049	
42	201.69897603988647	fix_post	2		12	40.0	2.5	/experiments/AOT/AOT_stimuli/rescaled_final/1872_rv.mp4	0.0	222.17693090438843	0.10006594657897949
43	201.79904198646545	fix_pre	0		120	41.0	2.5	blank	1.0	222.2769968509674	1.0000100135803223
43	202.3824381828308	pulse	0	t		41.0	2.5	blank	1.0	222.86039304733276	
43	202.79905200004578	movie	1		300	41.0	2.5	blank	1.0	223.27700686454773	2.4998440742492676
43	203.98241305351257	pulse	1	t		41.0	2.5	blank	1.0	224.46036791801453	
43	205.29889607429504	fix_post	2		12	41.0	2.5	blank	1.0	225.776850938797	0.10012102127075195
44	205.3990170955658	fix_pre	0		120	42.0	2.5	/experiments/AOT/AOT_stimuli/rescaled_final/1878_fw.mp4	0.0	225.87697196006775	0.9999959468841553
44	205.58238911628723	pulse	0	t		42.0	2.5	/experiments/AOT/AOT_stimuli/rescaled_final/1878_fw.mp4	0.0	226.06034398078918	
44	206.39901304244995	movie	1		244	42.0	2.5	/experiments/AOT/AOT_stimuli/rescaled_final/1878_fw.mp4	0.0	226.8769679069519	2.4999849796295166
44	207.18245005607605	pulse	1	t		42.0	2.5	/experiments/AOT/AOT_stimuli/rescaled_final/1878_fw.mp4	0.0	227.660404920578	
44	208.78250217437744	pulse	1	t		42.0	2.5	/experiments/AOT/AOT_stimuli/rescaled_final/1878_fw.mp4	0.0	229.2604570388794	
44	208.89899802207947	fix_post	2		12	42.0	2.5	/experiments/AOT/AOT_stimuli/rescaled_final/1878_fw.mp4	0.0	229.37695288658142	0.09999895095825195
45	208.99899697303772	fix_pre	0		120	43.0	2.5	/experiments/AOT/AOT_stimuli/rescaled_final/1146_fw.mp4	0.0	229.47695183753967	0.9996039867401123
45	209.99860095977783	movie	1		244	43.0	2.5	/experiments/AOT/AOT_stimuli/rescaled_final/1146_fw.mp4	0.0	230.47655582427979	2.50019907951355
45	210.38189506530762	pulse	1	t		43.0	2.5	/experiments/AOT/AOT_stimuli/rescaled_final/1146_fw.mp4	0.0	230.85984992980957	
45	211.98262906074524	pulse	1	t		43.0	2.5	/experiments/AOT/AOT_stimuli/rescaled_final/1146_fw.mp4	0.0	232.4605839252472	
45	212.49880003929138	fix_post	2		12	43.0	2.5	/experiments/AOT/AOT_stimuli/rescaled_final/1146_fw.mp4	0.0	232.97675490379333	0.10046100616455078
46	212.59926104545593	fix_pre	0		119	44.0	2.5	/experiments/AOT/AOT_stimuli/rescaled_final/1428_fw.mp4	0.0	233.07721590995789	0.9913289546966553
46	213.5824589729309	pulse	0	t		44.0	2.5	/experiments/AOT/AOT_stimuli/rescaled_final/1428_fw.mp4	0.0	234.06041383743286	
46	213.5905900001526	movie	1		249	44.0	2.5	/experiments/AOT/AOT_stimuli/rescaled_final/1428_fw.mp4	0.0	234.06854486465454	2.508455991744995
46	215.18191409111023	pulse	1	t		44.0	2.5	/experiments/AOT/AOT_stimuli/rescaled_final/1428_fw.mp4	0.0	235.65986895561218	
46	216.09904599189758	fix_post	2		12	44.0	2.5	/experiments/AOT/AOT_stimuli/rescaled_final/1428_fw.mp4	0.0	236.57700085639954	0.09992098808288574
47	216.19896697998047	fix_pre	0		120	45.0	2.5	/experiments/AOT/AOT_stimuli/rescaled_final/0380_rv.mp4	0.0	236.67692184448242	0.9995381832122803
47	216.7824101448059	pulse	0	t		45.0	2.5	/experiments/AOT/AOT_stimuli/rescaled_final/0380_rv.mp4	0.0	237.26036500930786	
47	217.19850516319275	movie	1		245	45.0	2.5	/experiments/AOT/AOT_stimuli/rescaled_final/0380_rv.mp4	0.0	237.6764600276947	2.500349998474121
47	218.38245010375977	pulse	1	t		45.0	2.5	/experiments/AOT/AOT_stimuli/rescaled_final/0380_rv.mp4	0.0	238.86040496826172	
47	219.69885516166687	fix_post	2		12	45.0	2.5	/experiments/AOT/AOT_stimuli/rescaled_final/0380_rv.mp4	0.0	240.17681002616882	0.10003900527954102
48	219.7988941669464	fix_pre	0		120	46.0	2.5	/experiments/AOT/AOT_stimuli/rescaled_final/0854_fw.mp4	0.0	240.27684903144836	0.9999887943267822
48	219.9823751449585	pulse	0	t		46.0	2.5	/experiments/AOT/AOT_stimuli/rescaled_final/0854_fw.mp4	0.0	240.46033000946045	
48	220.7988829612732	movie	1		245	46.0	2.5	/experiments/AOT/AOT_stimuli/rescaled_final/0854_fw.mp4	0.0	241.27683782577515	2.499660015106201
48	221.5822880268097	pulse	1	t		46.0	2.5	/experiments/AOT/AOT_stimuli/rescaled_final/0854_fw.mp4	0.0	242.06024289131165	
48	223.18182706832886	pulse	1	t		46.0	2.5	/experiments/AOT/AOT_stimuli/rescaled_final/0854_fw.mp4	0.0	243.6597819328308	
48	223.2985429763794	fix_post	2		12	46.0	2.5	/experiments/AOT/AOT_stimuli/rescaled_final/0854_fw.mp4	0.0	243.77649784088135	0.09990501403808594
49	223.39844799041748	fix_pre	0		120	47.0	2.5	blank	1.0	243.87640285491943	1.0001411437988281
49	224.3985891342163	movie	1		300	47.0	2.5	blank	1.0	244.87654399871826	2.5003440380096436
49	224.78235006332397	pulse	1	t		47.0	2.5	blank	1.0	245.26030492782593	
49	226.38232803344727	pulse	1	t		47.0	2.5	blank	1.0	246.86028289794922	
49	226.89893317222595	fix_post	2		12	47.0	2.5	blank	1.0	247.3768880367279	0.09961581230163574
50	226.9985489845276	fix_pre	0		119	48.0	2.5	/experiments/AOT/AOT_stimuli/rescaled_final/2037_rv.mp4	0.0	247.47650384902954	0.9920990467071533
50	227.9823591709137	pulse	0	t		48.0	2.5	/experiments/AOT/AOT_stimuli/rescaled_final/2037_rv.mp4	0.0	248.46031403541565	
50	227.99064803123474	movie	1		245	48.0	2.5	/experiments/AOT/AOT_stimuli/rescaled_final/2037_rv.mp4	0.0	248.4686028957367	2.507791042327881
50	229.5820209980011	pulse	1	t		48.0	2.5	/experiments/AOT/AOT_stimuli/rescaled_final/2037_rv.mp4	0.0	250.05997586250305	
50	230.49843907356262	fix_post	2		12	48.0	2.5	/experiments/AOT/AOT_stimuli/rescaled_final/2037_rv.mp4	0.0	250.97639393806458	0.10041189193725586
51	230.59885096549988	fix_pre	0		120	49.0	2.5	/experiments/AOT/AOT_stimuli/rescaled_final/0888_rv.mp4	0.0	251.07680583000183	1.0002009868621826
51	231.18230509757996	pulse	0	t		49.0	2.5	/experiments/AOT/AOT_stimuli/rescaled_final/0888_rv.mp4	0.0	251.6602599620819	
51	231.59905195236206	movie	1		243	49.0	2.5	/experiments/AOT/AOT_stimuli/rescaled_final/0888_rv.mp4	0.0	252.077006816864	2.499329090118408
51	232.78240704536438	pulse	1	t		49.0	2.5	/experiments/AOT/AOT_stimuli/rescaled_final/0888_rv.mp4	0.0	253.26036190986633	
51	234.09838104248047	fix_post	2		12	49.0	2.5	/experiments/AOT/AOT_stimuli/rescaled_final/0888_rv.mp4	0.0	254.57633590698242	0.10041403770446777
52	234.19879508018494	fix_pre	0		120	50.0	2.5	/experiments/AOT/AOT_stimuli/rescaled_final/0915_rv.mp4	0.0	254.6767499446869	0.9999849796295166
52	234.38237500190735	pulse	0	t		50.0	2.5	/experiments/AOT/AOT_stimuli/rescaled_final/0915_rv.mp4	0.0	254.8603298664093	
52	235.19878005981445	movie	1		243	50.0	2.5	/experiments/AOT/AOT_stimuli/rescaled_final/0915_rv.mp4	0.0	255.6767349243164	2.500001907348633
52	235.98238801956177	pulse	1	t		50.0	2.5	/experiments/AOT/AOT_stimuli/rescaled_final/0915_rv.mp4	0.0	256.4603428840637	
52	237.59068703651428	pulse	1	t		50.0	2.5	/experiments/AOT/AOT_stimuli/rescaled_final/0915_rv.mp4	0.0	258.06864190101624	
52	237.6987819671631	fix_post	2		12	50.0	2.5	/experiments/AOT/AOT_stimuli/rescaled_final/0915_rv.mp4	0.0	258.17673683166504	0.09967803955078125
53	237.79846000671387	fix_pre	0		120	51.0	2.5	/experiments/AOT/AOT_stimuli/rescaled_final/1575_rv.mp4	0.0	258.2764148712158	1.000303030014038
53	238.7987630367279	movie	1		247	51.0	2.5	/experiments/AOT/AOT_stimuli/rescaled_final/1575_rv.mp4	0.0	259.27671790122986	2.5000159740448
53	239.18172812461853	pulse	1	t		51.0	2.5	/experiments/AOT/AOT_stimuli/rescaled_final/1575_rv.mp4	0.0	259.6596829891205	
53	240.78225302696228	pulse	1	t		51.0	2.5	/experiments/AOT/AOT_stimuli/rescaled_final/1575_rv.mp4	0.0	261.26020789146423	
53	241.2987790107727	fix_post	2		12	51.0	2.5	/experiments/AOT/AOT_stimuli/rescaled_final/1575_rv.mp4	0.0	261.77673387527466	0.10001206398010254
54	241.3987910747528	fix_pre	0		119	52.0	2.5	/experiments/AOT/AOT_stimuli/rescaled_final/0808_fw.mp4	0.0	261.87674593925476	0.9917399883270264
54	242.38228607177734	pulse	0	t		52.0	2.5	/experiments/AOT/AOT_stimuli/rescaled_final/0808_fw.mp4	0.0	262.8602409362793	
54	242.39053106307983	movie	1		247	52.0	2.5	/experiments/AOT/AOT_stimuli/rescaled_final/0808_fw.mp4	0.0	262.8684859275818	2.507802963256836
54	243.9817090034485	pulse	1	t		52.0	2.5	/experiments/AOT/AOT_stimuli/rescaled_final/0808_fw.mp4	0.0	264.45966386795044	
54	244.89833402633667	fix_post	2		12	52.0	2.5	/experiments/AOT/AOT_stimuli/rescaled_final/0808_fw.mp4	0.0	265.3762888908386	0.10046195983886719
55	244.99879598617554	fix_pre	0		120	53.0	2.5	/experiments/AOT/AOT_stimuli/rescaled_final/0993_rv.mp4	0.0	265.4767508506775	0.9999270439147949
55	245.5822401046753	pulse	0	t		53.0	2.5	/experiments/AOT/AOT_stimuli/rescaled_final/0993_rv.mp4	0.0	266.06019496917725	
55	245.99872303009033	movie	1		244	53.0	2.5	/experiments/AOT/AOT_stimuli/rescaled_final/0993_rv.mp4	0.0	266.4766778945923	2.5000500679016113
55	247.18234395980835	pulse	1	t		53.0	2.5	/experiments/AOT/AOT_stimuli/rescaled_final/0993_rv.mp4	0.0	267.6602988243103	
55	248.49877309799194	fix_post	2		12	53.0	2.5	/experiments/AOT/AOT_stimuli/rescaled_final/0993_rv.mp4	0.0	268.9767279624939	0.10008907318115234
56	248.5988621711731	fix_pre	0		120	54.0	2.5	blank	1.0	269.07681703567505	1.0000298023223877
56	248.78217697143555	pulse	0	t		54.0	2.5	blank	1.0	269.2601318359375	
56	249.59889197349548	movie	1		300	54.0	2.5	blank	1.0	270.07684683799744	2.4999401569366455
56	250.38230204582214	pulse	1	t		54.0	2.5	blank	1.0	270.8602569103241	
56	251.98219895362854	pulse	1	t		54.0	2.5	blank	1.0	272.4601538181305	
56	252.09883213043213	fix_post	2		12	54.0	2.5	blank	1.0	272.5767869949341	0.09955000877380371
57	252.19838213920593	fix_pre	0		120	55.0	2.5	/experiments/AOT/AOT_stimuli/rescaled_final/1911_rv.mp4	0.0	272.6763370037079	1.0004258155822754
57	253.1988079547882	movie	1		244	55.0	2.5	/experiments/AOT/AOT_stimuli/rescaled_final/1911_rv.mp4	0.0	273.67676281929016	2.4998691082000732
57	253.58177995681763	pulse	1	t		55.0	2.5	/experiments/AOT/AOT_stimuli/rescaled_final/1911_rv.mp4	0.0	274.0597348213196	
57	255.18211698532104	pulse	1	t		55.0	2.5	/experiments/AOT/AOT_stimuli/rescaled_final/1911_rv.mp4	0.0	275.660071849823	
57	255.69867706298828	fix_post	2		12	55.0	2.5	/experiments/AOT/AOT_stimuli/rescaled_final/1911_rv.mp4	0.0	276.17663192749023	0.10001707077026367
58	255.79869413375854	fix_pre	0		119	56.0	2.5	/experiments/AOT/AOT_stimuli/rescaled_final/1033_rv.mp4	0.0	276.2766489982605	0.9917268753051758
58	256.78227615356445	pulse	0	t		56.0	2.5	/experiments/AOT/AOT_stimuli/rescaled_final/1033_rv.mp4	0.0	277.2602310180664	
58	256.7904210090637	movie	1		243	56.0	2.5	/experiments/AOT/AOT_stimuli/rescaled_final/1033_rv.mp4	0.0	277.2683758735657	2.5083391666412354
58	258.382541179657	pulse	1	t		56.0	2.5	/experiments/AOT/AOT_stimuli/rescaled_final/1033_rv.mp4	0.0	278.86049604415894	
58	259.29876017570496	fix_post	2		12	56.0	2.5	/experiments/AOT/AOT_stimuli/rescaled_final/1033_rv.mp4	0.0	279.7767150402069	0.10001897811889648
59	259.39877915382385	fix_pre	0		120	57.0	2.5	/experiments/AOT/AOT_stimuli/rescaled_final/1380_fw.mp4	0.0	279.8767340183258	1.000006914138794
59	259.98231506347656	pulse	0	t		57.0	2.5	/experiments/AOT/AOT_stimuli/rescaled_final/1380_fw.mp4	0.0	280.4602699279785	
59	260.39878606796265	movie	1		243	57.0	2.5	/experiments/AOT/AOT_stimuli/rescaled_final/1380_fw.mp4	0.0	280.8767409324646	2.4999539852142334
59	261.58226895332336	pulse	1	t		57.0	2.5	/experiments/AOT/AOT_stimuli/rescaled_final/1380_fw.mp4	0.0	282.0602238178253	
59	262.8987400531769	fix_post	2		12	57.0	2.5	/experiments/AOT/AOT_stimuli/rescaled_final/1380_fw.mp4	0.0	283.37669491767883	0.09996700286865234
60	262.99870705604553	fix_pre	0		120	58.0	2.5	/experiments/AOT/AOT_stimuli/rescaled_final/1764_rv.mp4	0.0	283.4766619205475	1.0000391006469727
60	263.182156085968	pulse	0	t		58.0	2.5	/experiments/AOT/AOT_stimuli/rescaled_final/1764_rv.mp4	0.0	283.66011095046997	
60	263.9987461566925	movie	1		247	58.0	2.5	/experiments/AOT/AOT_stimuli/rescaled_final/1764_rv.mp4	0.0	284.47670102119446	2.499660015106201
60	264.7821590900421	pulse	1	t		58.0	2.5	/experiments/AOT/AOT_stimuli/rescaled_final/1764_rv.mp4	0.0	285.26011395454407	
60	266.3818531036377	pulse	1	t		58.0	2.5	/experiments/AOT/AOT_stimuli/rescaled_final/1764_rv.mp4	0.0	286.85980796813965	
60	266.4984061717987	fix_post	2		12	58.0	2.5	/experiments/AOT/AOT_stimuli/rescaled_final/1764_rv.mp4	0.0	286.97636103630066	0.09995079040527344
61	266.598356962204	fix_pre	0		120	59.0	2.5	/experiments/AOT/AOT_stimuli/rescaled_final/1320_rv.mp4	0.0	287.07631182670593	1.000157117843628
61	267.5985140800476	movie	1		245	59.0	2.5	/experiments/AOT/AOT_stimuli/rescaled_final/1320_rv.mp4	0.0	288.07646894454956	2.500196933746338
61	267.98303508758545	pulse	1	t		59.0	2.5	/experiments/AOT/AOT_stimuli/rescaled_final/1320_rv.mp4	0.0	288.4609899520874	
61	269.58218598365784	pulse	1	t		59.0	2.5	/experiments/AOT/AOT_stimuli/rescaled_final/1320_rv.mp4	0.0	290.0601408481598	
61	270.09871101379395	fix_post	2		12	59.0	2.5	/experiments/AOT/AOT_stimuli/rescaled_final/1320_rv.mp4	0.0	290.5766658782959	0.10002303123474121
62	270.1987340450287	fix_pre	0		119	60.0	2.5	/experiments/AOT/AOT_stimuli/rescaled_final/1136_rv.mp4	0.0	290.67668890953064	0.9917020797729492
62	271.1822180747986	pulse	0	t		60.0	2.5	/experiments/AOT/AOT_stimuli/rescaled_final/1136_rv.mp4	0.0	291.66017293930054	
62	271.19043612480164	movie	1		246	60.0	2.5	/experiments/AOT/AOT_stimuli/rescaled_final/1136_rv.mp4	0.0	291.6683909893036	2.5078680515289307
62	272.783194065094	pulse	1	t		60.0	2.5	/experiments/AOT/AOT_stimuli/rescaled_final/1136_rv.mp4	0.0	293.26114892959595	
62	273.69830417633057	fix_post	2		12	60.0	2.5	/experiments/AOT/AOT_stimuli/rescaled_final/1136_rv.mp4	0.0	294.1762590408325	0.10031485557556152
63	273.7986190319061	fix_pre	0		120	61.0	2.5	/experiments/AOT/AOT_stimuli/rescaled_final/1872_fw.mp4	0.0	294.2765738964081	1.0000009536743164
63	274.3820970058441	pulse	0	t		61.0	2.5	/experiments/AOT/AOT_stimuli/rescaled_final/1872_fw.mp4	0.0	294.86005187034607	
63	274.79861998558044	movie	1		243	61.0	2.5	/experiments/AOT/AOT_stimuli/rescaled_final/1872_fw.mp4	0.0	295.2765748500824	2.499958038330078
63	275.9821171760559	pulse	1	t		61.0	2.5	/experiments/AOT/AOT_stimuli/rescaled_final/1872_fw.mp4	0.0	296.46007204055786	
63	277.2985780239105	fix_post	2		12	61.0	2.5	/experiments/AOT/AOT_stimuli/rescaled_final/1872_fw.mp4	0.0	297.7765328884125	0.10004401206970215
64	277.3986220359802	fix_pre	0		120	62.0	2.5	/experiments/AOT/AOT_stimuli/rescaled_final/0667_rv.mp4	0.0	297.8765769004822	0.9995989799499512
64	277.582102060318	pulse	0	t		62.0	2.5	/experiments/AOT/AOT_stimuli/rescaled_final/0667_rv.mp4	0.0	298.06005692481995	
64	278.3982210159302	movie	1		243	62.0	2.5	/experiments/AOT/AOT_stimuli/rescaled_final/0667_rv.mp4	0.0	298.87617588043213	2.5003719329833984
64	279.1820721626282	pulse	1	t		62.0	2.5	/experiments/AOT/AOT_stimuli/rescaled_final/0667_rv.mp4	0.0	299.6600270271301	
64	280.7903640270233	pulse	1	t		62.0	2.5	/experiments/AOT/AOT_stimuli/rescaled_final/0667_rv.mp4	0.0	301.26831889152527	
64	280.8985929489136	fix_post	2		12	62.0	2.5	/experiments/AOT/AOT_stimuli/rescaled_final/0667_rv.mp4	0.0	301.3765478134155	0.09997916221618652
65	280.99857211112976	fix_pre	0		120	63.0	2.5	blank	1.0	301.4765269756317	1.0001089572906494
65	281.9986810684204	movie	1		300	63.0	2.5	blank	1.0	302.47663593292236	2.49992299079895
65	282.3820831775665	pulse	1	t		63.0	2.5	blank	1.0	302.8600380420685	
65	283.9820830821991	pulse	1	t		63.0	2.5	blank	1.0	304.46003794670105	
65	284.49860405921936	fix_post	2		12	63.0	2.5	blank	1.0	304.9765589237213	0.09998011589050293
66	284.59858417510986	fix_pre	0		119	64.0	2.5	/experiments/AOT/AOT_stimuli/rescaled_final/2037_rv.mp4	0.0	305.0765390396118	0.991689920425415
66	285.5820870399475	pulse	0	t		64.0	2.5	/experiments/AOT/AOT_stimuli/rescaled_final/2037_rv.mp4	0.0	306.06004190444946	
66	285.5902740955353	movie	1		247	64.0	2.5	/experiments/AOT/AOT_stimuli/rescaled_final/2037_rv.mp4	0.0	306.06822896003723	2.5083019733428955
66	287.1820240020752	pulse	1	t		64.0	2.5	/experiments/AOT/AOT_stimuli/rescaled_final/2037_rv.mp4	0.0	307.65997886657715	
66	288.0985760688782	fix_post	2		12	64.0	2.5	/experiments/AOT/AOT_stimuli/rescaled_final/2037_rv.mp4	0.0	308.5765309333801	0.10001206398010254
67	288.1985881328583	fix_pre	0		120	65.0	2.5	/experiments/AOT/AOT_stimuli/rescaled_final/1261_fw.mp4	0.0	308.67654299736023	1.0000200271606445
67	288.7821969985962	pulse	0	t		65.0	2.5	/experiments/AOT/AOT_stimuli/rescaled_final/1261_fw.mp4	0.0	309.26015186309814	
67	289.1986081600189	movie	1		244	65.0	2.5	/experiments/AOT/AOT_stimuli/rescaled_final/1261_fw.mp4	0.0	309.6765630245209	2.4995298385620117
67	290.38214206695557	pulse	1	t		65.0	2.5	/experiments/AOT/AOT_stimuli/rescaled_final/1261_fw.mp4	0.0	310.8600969314575	
67	291.69813799858093	fix_post	2		12	65.0	2.5	/experiments/AOT/AOT_stimuli/rescaled_final/1261_fw.mp4	0.0	312.1760928630829	0.1004340648651123
68	291.79857206344604	fix_pre	0		120	66.0	2.5	/experiments/AOT/AOT_stimuli/rescaled_final/0336_fw.mp4	0.0	312.276526927948	1.000072956085205
68	291.98208117485046	pulse	0	t		66.0	2.5	/experiments/AOT/AOT_stimuli/rescaled_final/0336_fw.mp4	0.0	312.4600360393524	
68	292.79864501953125	movie	1		245	66.0	2.5	/experiments/AOT/AOT_stimuli/rescaled_final/0336_fw.mp4	0.0	313.2765998840332	2.499873161315918
68	293.5820791721344	pulse	1	t		66.0	2.5	/experiments/AOT/AOT_stimuli/rescaled_final/0336_fw.mp4	0.0	314.06003403663635	
68	295.18091106414795	pulse	1	t		66.0	2.5	/experiments/AOT/AOT_stimuli/rescaled_final/0336_fw.mp4	0.0	315.6588659286499	
68	295.29851818084717	fix_post	2		12	66.0	2.5	/experiments/AOT/AOT_stimuli/rescaled_final/0336_fw.mp4	0.0	315.7764730453491	0.09999489784240723
69	295.3985130786896	fix_pre	0		120	67.0	2.5	/experiments/AOT/AOT_stimuli/rescaled_final/0868_fw.mp4	0.0	315.8764679431915	1.000032901763916
69	296.3985459804535	movie	1		245	67.0	2.5	/experiments/AOT/AOT_stimuli/rescaled_final/0868_fw.mp4	0.0	316.87650084495544	2.500014066696167
69	296.78165316581726	pulse	1	t		67.0	2.5	/experiments/AOT/AOT_stimuli/rescaled_final/0868_fw.mp4	0.0	317.2596080303192	
69	298.381942987442	pulse	1	t		67.0	2.5	/experiments/AOT/AOT_stimuli/rescaled_final/0868_fw.mp4	0.0	318.85989785194397	
69	298.89856004714966	fix_post	2		12	67.0	2.5	/experiments/AOT/AOT_stimuli/rescaled_final/0868_fw.mp4	0.0	319.3765149116516	0.09964704513549805
70	298.99820709228516	fix_pre	0		119	68.0	2.5	blank	1.0	319.4761619567871	0.9920098781585693
70	299.98198914527893	pulse	0	t		68.0	2.5	blank	1.0	320.4599440097809	
70	299.9902169704437	movie	1		301	68.0	2.5	blank	1.0	320.4681718349457	2.5083181858062744
70	301.58198404312134	pulse	1	t		68.0	2.5	blank	1.0	322.0599389076233	
70	302.49853515625	fix_post	2		12	68.0	2.5	blank	1.0	322.97649002075195	0.10004186630249023
71	302.5985770225525	fix_pre	0		120	69.0	2.5	/experiments/AOT/AOT_stimuli/rescaled_final/0418_fw.mp4	0.0	323.07653188705444	0.9995050430297852
71	303.18202209472656	pulse	0	t		69.0	2.5	/experiments/AOT/AOT_stimuli/rescaled_final/0418_fw.mp4	0.0	323.6599769592285	
71	303.5980820655823	movie	1		244	69.0	2.5	/experiments/AOT/AOT_stimuli/rescaled_final/0418_fw.mp4	0.0	324.07603693008423	2.500001907348633
71	304.78217816352844	pulse	1	t		69.0	2.5	/experiments/AOT/AOT_stimuli/rescaled_final/0418_fw.mp4	0.0	325.2601330280304	
71	306.0980839729309	fix_post	2		12	69.0	2.5	/experiments/AOT/AOT_stimuli/rescaled_final/0418_fw.mp4	0.0	326.57603883743286	0.10036897659301758
72	306.1984529495239	fix_pre	0		120	70.0	2.5	/experiments/AOT/AOT_stimuli/rescaled_final/0808_rv.mp4	0.0	326.6764078140259	1.0001270771026611
72	306.3819971084595	pulse	0	t		70.0	2.5	/experiments/AOT/AOT_stimuli/rescaled_final/0808_rv.mp4	0.0	326.8599519729614	
72	307.1985800266266	movie	1		245	70.0	2.5	/experiments/AOT/AOT_stimuli/rescaled_final/0808_rv.mp4	0.0	327.67653489112854	2.4998669624328613
72	307.98194313049316	pulse	1	t		70.0	2.5	/experiments/AOT/AOT_stimuli/rescaled_final/0808_rv.mp4	0.0	328.4598979949951	
72	309.58151602745056	pulse	1	t		70.0	2.5	/experiments/AOT/AOT_stimuli/rescaled_final/0808_rv.mp4	0.0	330.0594708919525	
72	309.69844698905945	fix_post	2		12	70.0	2.5	/experiments/AOT/AOT_stimuli/rescaled_final/0808_rv.mp4	0.0	330.1764018535614	0.10001802444458008
73	309.798465013504	fix_pre	0		120	71.0	2.5	/experiments/AOT/AOT_stimuli/rescaled_final/0971_rv.mp4	0.0	330.276419878006	1.0000171661376953
73	310.7984821796417	movie	1		244	71.0	2.5	/experiments/AOT/AOT_stimuli/rescaled_final/0971_rv.mp4	0.0	331.2764370441437	2.4999330043792725
73	311.18166399002075	pulse	1	t		71.0	2.5	/experiments/AOT/AOT_stimuli/rescaled_final/0971_rv.mp4	0.0	331.6596188545227	
73	312.7819411754608	pulse	1	t		71.0	2.5	/experiments/AOT/AOT_stimuli/rescaled_final/0971_rv.mp4	0.0	333.25989603996277	
73	313.298415184021	fix_post	2		12	71.0	2.5	/experiments/AOT/AOT_stimuli/rescaled_final/0971_rv.mp4	0.0	333.77637004852295	0.10012483596801758
74	313.398540019989	fix_pre	0		119	72.0	2.5	/experiments/AOT/AOT_stimuli/rescaled_final/0888_fw.mp4	0.0	333.87649488449097	0.9916870594024658
74	314.3819260597229	pulse	0	t		72.0	2.5	/experiments/AOT/AOT_stimuli/rescaled_final/0888_fw.mp4	0.0	334.85988092422485	
74	314.3902270793915	movie	1		244	72.0	2.5	/experiments/AOT/AOT_stimuli/rescaled_final/0888_fw.mp4	0.0	334.86818194389343	2.5082809925079346
74	315.9816801548004	pulse	1	t		72.0	2.5	/experiments/AOT/AOT_stimuli/rescaled_final/0888_fw.mp4	0.0	336.45963501930237	
74	316.8985080718994	fix_post	2		12	72.0	2.5	/experiments/AOT/AOT_stimuli/rescaled_final/0888_fw.mp4	0.0	337.37646293640137	0.09951496124267578
75	316.9980230331421	fix_pre	0		120	73.0	2.5	/experiments/AOT/AOT_stimuli/rescaled_final/0845_rv.mp4	0.0	337.47597789764404	1.0004370212554932
75	317.5818829536438	pulse	0	t		73.0	2.5	/experiments/AOT/AOT_stimuli/rescaled_final/0845_rv.mp4	0.0	338.05983781814575	
75	317.9984600543976	movie	1		245	73.0	2.5	/experiments/AOT/AOT_stimuli/rescaled_final/0845_rv.mp4	0.0	338.47641491889954	2.4995570182800293
75	319.18202209472656	pulse	1	t		73.0	2.5	/experiments/AOT/AOT_stimuli/rescaled_final/0845_rv.mp4	0.0	339.6599769592285	
75	320.4980170726776	fix_post	2		12	73.0	2.5	/experiments/AOT/AOT_stimuli/rescaled_final/0845_rv.mp4	0.0	340.97597193717957	0.10045409202575684
76	320.59847116470337	fix_pre	0		120	74.0	2.5	/experiments/AOT/AOT_stimuli/rescaled_final/0868_rv.mp4	0.0	341.0764260292053	0.9995448589324951
76	320.78190207481384	pulse	0	t		74.0	2.5	/experiments/AOT/AOT_stimuli/rescaled_final/0868_rv.mp4	0.0	341.2598569393158	
76	321.59801602363586	movie	1		244	74.0	2.5	/experiments/AOT/AOT_stimuli/rescaled_final/0868_rv.mp4	0.0	342.0759708881378	2.500304937362671
76	322.38150000572205	pulse	1	t		74.0	2.5	/experiments/AOT/AOT_stimuli/rescaled_final/0868_rv.mp4	0.0	342.859454870224	
76	323.9905481338501	pulse	1	t		74.0	2.5	/experiments/AOT/AOT_stimuli/rescaled_final/0868_rv.mp4	0.0	344.46850299835205	
76	324.09832096099854	fix_post	2		12	74.0	2.5	/experiments/AOT/AOT_stimuli/rescaled_final/0868_rv.mp4	0.0	344.5762758255005	0.10038900375366211
77	324.1987099647522	fix_pre	0		120	75.0	2.5	blank	1.0	344.67666482925415	0.9993431568145752
77	325.1980531215668	movie	1		300	75.0	2.5	blank	1.0	345.6760079860687	2.5003609657287598
77	325.5819001197815	pulse	1	t		75.0	2.5	blank	1.0	346.05985498428345	
77	327.1819360256195	pulse	1	t		75.0	2.5	blank	1.0	347.65989089012146	
77	327.69841408729553	fix_post	2		12	75.0	2.5	blank	1.0	348.1763689517975	0.10001802444458008
78	327.7984321117401	fix_pre	0		119	76.0	2.5	/experiments/AOT/AOT_stimuli/rescaled_final/0228_fw.mp4	0.0	348.27638697624207	0.9916379451751709
78	328.781818151474	pulse	0	t		76.0	2.5	/experiments/AOT/AOT_stimuli/rescaled_final/0228_fw.mp4	0.0	349.25977301597595	
78	328.7900700569153	movie	1		244	76.0	2.5	/experiments/AOT/AOT_stimuli/rescaled_final/0228_fw.mp4	0.0	349.26802492141724	2.5082690715789795
78	330.39027214050293	pulse	1	t		76.0	2.5	/experiments/AOT/AOT_stimuli/rescaled_final/0228_fw.mp4	0.0	350.8682270050049	
78	331.29833912849426	fix_post	2		12	76.0	2.5	/experiments/AOT/AOT_stimuli/rescaled_final/0228_fw.mp4	0.0	351.7762939929962	0.09956002235412598
79	331.3978991508484	fix_pre	0		120	77.0	2.5	/experiments/AOT/AOT_stimuli/rescaled_final/0716_fw.mp4	0.0	351.87585401535034	1.0005738735198975
79	331.9818251132965	pulse	0	t		77.0	2.5	/experiments/AOT/AOT_stimuli/rescaled_final/0716_fw.mp4	0.0	352.45977997779846	
79	332.3984730243683	movie	1		244	77.0	2.5	/experiments/AOT/AOT_stimuli/rescaled_final/0716_fw.mp4	0.0	352.87642788887024	2.499418020248413
79	333.58194398880005	pulse	1	t		77.0	2.5	/experiments/AOT/AOT_stimuli/rescaled_final/0716_fw.mp4	0.0	354.059898853302	
79	334.8978910446167	fix_post	2		12	77.0	2.5	/experiments/AOT/AOT_stimuli/rescaled_final/0716_fw.mp4	0.0	355.37584590911865	0.10049009323120117
80	334.9983811378479	fix_pre	0		120	78.0	2.5	/experiments/AOT/AOT_stimuli/rescaled_final/1024_fw.mp4	0.0	355.47633600234985	0.9996240139007568
80	335.18185901641846	pulse	0	t		78.0	2.5	/experiments/AOT/AOT_stimuli/rescaled_final/1024_fw.mp4	0.0	355.6598138809204	
80	335.99800515174866	movie	1		245	78.0	2.5	/experiments/AOT/AOT_stimuli/rescaled_final/1024_fw.mp4	0.0	356.4759600162506	2.500025987625122
80	336.78186297416687	pulse	1	t		78.0	2.5	/experiments/AOT/AOT_stimuli/rescaled_final/1024_fw.mp4	0.0	357.2598178386688	
80	338.39016008377075	pulse	1	t		78.0	2.5	/experiments/AOT/AOT_stimuli/rescaled_final/1024_fw.mp4	0.0	358.8681149482727	
80	338.4980311393738	fix_post	2		12	78.0	2.5	/experiments/AOT/AOT_stimuli/rescaled_final/1024_fw.mp4	0.0	358.97598600387573	0.10033583641052246
81	338.5983669757843	fix_pre	0		120	79.0	2.5	/experiments/AOT/AOT_stimuli/rescaled_final/0458_fw.mp4	0.0	359.07632184028625	1.0000441074371338
81	339.59841108322144	movie	1		244	79.0	2.5	/experiments/AOT/AOT_stimuli/rescaled_final/0458_fw.mp4	0.0	360.0763659477234	2.4999160766601562
81	339.981516122818	pulse	1	t		79.0	2.5	/experiments/AOT/AOT_stimuli/rescaled_final/0458_fw.mp4	0.0	360.45947098731995	
81	341.58187103271484	pulse	1	t		79.0	2.5	/experiments/AOT/AOT_stimuli/rescaled_final/0458_fw.mp4	0.0	362.0598258972168	
81	342.0983271598816	fix_post	2		12	79.0	2.5	/experiments/AOT/AOT_stimuli/rescaled_final/0458_fw.mp4	0.0	362.57628202438354	0.10007190704345703
82	342.19839906692505	fix_pre	0		120	80.0	2.5	/experiments/AOT/AOT_stimuli/rescaled_final/2057_rv.mp4	0.0	362.676353931427	0.9999001026153564
82	343.1825921535492	pulse	0	t		80.0	2.5	/experiments/AOT/AOT_stimuli/rescaled_final/2057_rv.mp4	0.0	363.66054701805115	
82	343.1982991695404	movie	1		244	80.0	2.5	/experiments/AOT/AOT_stimuli/rescaled_final/2057_rv.mp4	0.0	363.67625403404236	2.5083048343658447
82	344.78182315826416	pulse	1	t		80.0	2.5	/experiments/AOT/AOT_stimuli/rescaled_final/2057_rv.mp4	0.0	365.2597780227661	
82	345.70660400390625	fix_post	2		12	80.0	2.5	/experiments/AOT/AOT_stimuli/rescaled_final/2057_rv.mp4	0.0	366.1845588684082	0.10007905960083008
83	345.8066830635071	fix_pre	0		120	81.0	2.5	/experiments/AOT/AOT_stimuli/rescaled_final/0209_rv.mp4	0.0	366.28463792800903	0.9999709129333496
83	346.3817889690399	pulse	0	t		81.0	2.5	/experiments/AOT/AOT_stimuli/rescaled_final/0209_rv.mp4	0.0	366.85974383354187	
83	346.80665397644043	movie	1		245	81.0	2.5	/experiments/AOT/AOT_stimuli/rescaled_final/0209_rv.mp4	0.0	367.2846088409424	2.499562978744507
83	347.98194313049316	pulse	1	t		81.0	2.5	/experiments/AOT/AOT_stimuli/rescaled_final/0209_rv.mp4	0.0	368.4598979949951	
83	349.30621695518494	fix_post	2		12	81.0	2.5	/experiments/AOT/AOT_stimuli/rescaled_final/0209_rv.mp4	0.0	369.7841718196869	0.09999322891235352
84	349.4062101840973	fix_pre	0		120	82.0	2.5	/experiments/AOT/AOT_stimuli/rescaled_final/0273_fw.mp4	0.0	369.88416504859924	1.0004658699035645
84	349.5817930698395	pulse	0	t		82.0	2.5	/experiments/AOT/AOT_stimuli/rescaled_final/0273_fw.mp4	0.0	370.05974793434143	
84	350.40667605400085	movie	1		243	82.0	2.5	/experiments/AOT/AOT_stimuli/rescaled_final/0273_fw.mp4	0.0	370.8846309185028	2.4995241165161133
84	351.18163895606995	pulse	1	t		82.0	2.5	/experiments/AOT/AOT_stimuli/rescaled_final/0273_fw.mp4	0.0	371.6595938205719	
84	352.7818429470062	pulse	1	t		82.0	2.5	/experiments/AOT/AOT_stimuli/rescaled_final/0273_fw.mp4	0.0	373.2597978115082	
84	352.90620017051697	fix_post	2		12	82.0	2.5	/experiments/AOT/AOT_stimuli/rescaled_final/0273_fw.mp4	0.0	373.3841550350189	0.09995698928833008
85	353.0061571598053	fix_pre	0		120	83.0	2.5	blank	1.0	373.48411202430725	1.000497817993164
85	354.00665497779846	movie	1		300	83.0	2.5	blank	1.0	374.4846098423004	2.499993085861206
85	354.3816990852356	pulse	1	t		83.0	2.5	blank	1.0	374.85965394973755	
85	355.98182106018066	pulse	1	t		83.0	2.5	blank	1.0	376.4597759246826	
85	356.50664806365967	fix_post	2		12	83.0	2.5	blank	1.0	376.9846029281616	0.09995794296264648
87	356.6066060066223	stim	0		1716					377.08456087112427	14.300029993057251
87	357.58174300193787	pulse	0	t						378.0596978664398	
87	359.18175411224365	pulse	0	t						379.6597089767456	
87	360.7816369533539	pulse	0	t						381.25959181785583	
87	362.3817341327667	pulse	0	t						382.8596889972687	
87	363.9816801548004	pulse	0	t						384.45963501930237	
87	365.58166313171387	pulse	0	t						386.0596179962158	
87	367.1816520690918	pulse	0	t						387.65960693359375	
87	368.7815990447998	pulse	0	t						389.25955390930176	
87	370.38170409202576	pulse	0	t						390.8596589565277	
