trial_nr	onset	event_type	phase	response	nr_frames	movie_index	movie_duration	movie_file	blank	onset_abs	duration
0	0.19150304794311523	stim	0		3					16.90961503982544	0.02508997917175293
0	0.20838308334350586	response	0	space						16.92649507522583	
1	0.21659302711486816	stim	0		4608					16.934705018997192	38.415945053100586
1	38.622528076171875	pulse	0	t						55.3406400680542	
1	38.632538080215454	stim	1		1715					55.35065007209778	14.300158977508545
1	40.214202880859375	pulse	1	t						56.9323148727417	
1	41.814626932144165	pulse	1	t						58.53273892402649	
1	43.407232999801636	pulse	1	t						60.12534499168396	
1	45.00746488571167	pulse	1	t						61.725576877593994	
1	46.60779404640198	pulse	1	t						63.3259060382843	
1	48.20795297622681	pulse	1	t						64.92606496810913	
1	49.807405948638916	pulse	1	t						66.52551794052124	
1	51.407588958740234	pulse	1	t						68.12570095062256	
2	52.932697057724	fix_pre	0		10	0.0	2.5	/experiments/knapen_AOT/AOT_stimuli/rescaled_final/0815_rv.mp4	0.0	69.65080904960632	0.0833120346069336
2	53.00793194770813	pulse	0	t		0.0	2.5	/experiments/knapen_AOT/AOT_stimuli/rescaled_final/0815_rv.mp4	0.0	69.72604393959045	
2	53.01600909233093	movie	1		242	0.0	2.5	/experiments/knapen_AOT/AOT_stimuli/rescaled_final/0815_rv.mp4	0.0	69.73412108421326	2.5087099075317383
2	54.60870099067688	pulse	1	t		0.0	2.5	/experiments/knapen_AOT/AOT_stimuli/rescaled_final/0815_rv.mp4	0.0	71.3268129825592	
2	55.52471899986267	fix_post	2		12	0.0	2.5	/experiments/knapen_AOT/AOT_stimuli/rescaled_final/0815_rv.mp4	0.0	72.242830991745	0.10003805160522461
3	55.624757051467896	fix_pre	0		120	1.0	2.5	/experiments/knapen_AOT/AOT_stimuli/rescaled_final/0931_fw.mp4	0.0	72.34286904335022	1.0001118183135986
3	56.20826292037964	pulse	0	t		1.0	2.5	/experiments/knapen_AOT/AOT_stimuli/rescaled_final/0931_fw.mp4	0.0	72.92637491226196	
3	56.624868869781494	movie	1		242	1.0	2.5	/experiments/knapen_AOT/AOT_stimuli/rescaled_final/0931_fw.mp4	0.0	73.34298086166382	2.5003411769866943
3	57.808634996414185	pulse	1	t		1.0	2.5	/experiments/knapen_AOT/AOT_stimuli/rescaled_final/0931_fw.mp4	0.0	74.52674698829651	
3	59.12521004676819	fix_post	2		12	1.0	2.5	/experiments/knapen_AOT/AOT_stimuli/rescaled_final/0931_fw.mp4	0.0	75.84332203865051	0.10001897811889648
4	59.225229024887085	fix_pre	0		120	2.0	2.5	/experiments/knapen_AOT/AOT_stimuli/rescaled_final/0067_fw.mp4	0.0	75.94334101676941	1.0001659393310547
4	59.40877604484558	pulse	0	t		2.0	2.5	/experiments/knapen_AOT/AOT_stimuli/rescaled_final/0067_fw.mp4	0.0	76.1268880367279	
4	60.22539496421814	movie	1		244	2.0	2.5	/experiments/knapen_AOT/AOT_stimuli/rescaled_final/0067_fw.mp4	0.0	76.94350695610046	2.5003600120544434
4	61.00901508331299	pulse	1	t		2.0	2.5	/experiments/knapen_AOT/AOT_stimuli/rescaled_final/0067_fw.mp4	0.0	77.72712707519531	
4	62.60916495323181	pulse	1	t		2.0	2.5	/experiments/knapen_AOT/AOT_stimuli/rescaled_final/0067_fw.mp4	0.0	79.32727694511414	
4	62.72575497627258	fix_post	2		12	2.0	2.5	/experiments/knapen_AOT/AOT_stimuli/rescaled_final/0067_fw.mp4	0.0	79.44386696815491	0.10008811950683594
5	62.82584309577942	fix_pre	0		120	3.0	2.5	/experiments/knapen_AOT/AOT_stimuli/rescaled_final/0019_rv.mp4	0.0	79.54395508766174	1.0001378059387207
5	63.82598090171814	movie	1		242	3.0	2.5	/experiments/knapen_AOT/AOT_stimuli/rescaled_final/0019_rv.mp4	0.0	80.54409289360046	2.4921791553497314
5	64.21102809906006	pulse	1	t		3.0	2.5	/experiments/knapen_AOT/AOT_stimuli/rescaled_final/0019_rv.mp4	0.0	80.92914009094238	
5	65.80979490280151	pulse	1	t		3.0	2.5	/experiments/knapen_AOT/AOT_stimuli/rescaled_final/0019_rv.mp4	0.0	82.52790689468384	
5	66.31816005706787	fix_post	2		12	3.0	2.5	/experiments/knapen_AOT/AOT_stimuli/rescaled_final/0019_rv.mp4	0.0	83.0362720489502	0.09987497329711914
6	66.41803503036499	fix_pre	0		120	4.0	2.5	/experiments/knapen_AOT/AOT_stimuli/rescaled_final/0847_fw.mp4	0.0	83.13614702224731	1.0000720024108887
6	67.40995907783508	pulse	0	t		4.0	2.5	/experiments/knapen_AOT/AOT_stimuli/rescaled_final/0847_fw.mp4	0.0	84.12807106971741	
6	67.41810703277588	movie	1		244	4.0	2.5	/experiments/knapen_AOT/AOT_stimuli/rescaled_final/0847_fw.mp4	0.0	84.1362190246582	2.5087170600891113
6	69.01088500022888	pulse	1	t		4.0	2.5	/experiments/knapen_AOT/AOT_stimuli/rescaled_final/0847_fw.mp4	0.0	85.7289969921112	
6	69.92682409286499	fix_post	2		12	4.0	2.5	/experiments/knapen_AOT/AOT_stimuli/rescaled_final/0847_fw.mp4	0.0	86.64493608474731	0.10007095336914062
7	70.02689504623413	fix_pre	0		120	5.0	2.5	/experiments/knapen_AOT/AOT_stimuli/rescaled_final/1660_rv.mp4	0.0	86.74500703811646	1.0001449584960938
7	70.61047697067261	pulse	0	t		5.0	2.5	/experiments/knapen_AOT/AOT_stimuli/rescaled_final/1660_rv.mp4	0.0	87.32858896255493	
7	71.02704000473022	movie	1		243	5.0	2.5	/experiments/knapen_AOT/AOT_stimuli/rescaled_final/1660_rv.mp4	0.0	87.74515199661255	2.500530958175659
7	72.21086692810059	pulse	1	t		5.0	2.5	/experiments/knapen_AOT/AOT_stimuli/rescaled_final/1660_rv.mp4	0.0	88.92897891998291	
7	73.52757096290588	fix_post	2		12	5.0	2.5	/experiments/knapen_AOT/AOT_stimuli/rescaled_final/1660_rv.mp4	0.0	90.24568295478821	0.0998239517211914
8	73.62739491462708	fix_pre	0		120	6.0	2.5	/experiments/knapen_AOT/AOT_stimuli/rescaled_final/1643_rv.mp4	0.0	90.3455069065094	1.000216007232666
8	73.81104588508606	pulse	0	t		6.0	2.5	/experiments/knapen_AOT/AOT_stimuli/rescaled_final/1643_rv.mp4	0.0	90.52915787696838	
8	74.62761092185974	movie	1		242	6.0	2.5	/experiments/knapen_AOT/AOT_stimuli/rescaled_final/1643_rv.mp4	0.0	91.34572291374207	2.500465154647827
8	75.4112138748169	pulse	1	t		6.0	2.5	/experiments/knapen_AOT/AOT_stimuli/rescaled_final/1643_rv.mp4	0.0	92.12932586669922	
8	77.01139903068542	pulse	1	t		6.0	2.5	/experiments/knapen_AOT/AOT_stimuli/rescaled_final/1643_rv.mp4	0.0	93.72951102256775	
8	77.12807607650757	fix_post	2		12	6.0	2.5	/experiments/knapen_AOT/AOT_stimuli/rescaled_final/1643_rv.mp4	0.0	93.84618806838989	0.09992289543151855
9	77.22799897193909	fix_pre	0		120	7.0	2.5	blank	1.0	93.94611096382141	1.0000689029693604
9	78.22806787490845	movie	1		299	7.0	2.5	blank	1.0	94.94617986679077	2.4920380115509033
9	78.61163997650146	pulse	1	t		7.0	2.5	blank	1.0	95.32975196838379	
9	80.21200799942017	pulse	1	t		7.0	2.5	blank	1.0	96.93011999130249	
9	80.72010588645935	fix_post	2		12	7.0	2.5	blank	1.0	97.43821787834167	0.09999418258666992
10	80.82010006904602	fix_pre	0		120	8.0	2.5	/experiments/knapen_AOT/AOT_stimuli/rescaled_final/0530_rv.mp4	0.0	97.53821206092834	1.0001988410949707
10	81.8122079372406	pulse	0	t		8.0	2.5	/experiments/knapen_AOT/AOT_stimuli/rescaled_final/0530_rv.mp4	0.0	98.53031992912292	
10	81.82029891014099	movie	1		243	8.0	2.5	/experiments/knapen_AOT/AOT_stimuli/rescaled_final/0530_rv.mp4	0.0	98.53841090202332	2.508751153945923
10	83.41382503509521	pulse	1	t		8.0	2.5	/experiments/knapen_AOT/AOT_stimuli/rescaled_final/0530_rv.mp4	0.0	100.13193702697754	
10	84.32905006408691	fix_post	2		12	8.0	2.5	/experiments/knapen_AOT/AOT_stimuli/rescaled_final/0530_rv.mp4	0.0	101.04716205596924	0.09996986389160156
11	84.42901992797852	fix_pre	0		120	9.0	2.5	/experiments/knapen_AOT/AOT_stimuli/rescaled_final/1657_fw.mp4	0.0	101.14713191986084	1.0001440048217773
11	85.01258707046509	pulse	0	t		9.0	2.5	/experiments/knapen_AOT/AOT_stimuli/rescaled_final/1657_fw.mp4	0.0	101.73069906234741	
11	85.4291639328003	movie	1		242	9.0	2.5	/experiments/knapen_AOT/AOT_stimuli/rescaled_final/1657_fw.mp4	0.0	102.14727592468262	2.500386953353882
11	86.61304903030396	pulse	1	t		9.0	2.5	/experiments/knapen_AOT/AOT_stimuli/rescaled_final/1657_fw.mp4	0.0	103.33116102218628	
11	87.92955088615417	fix_post	2		12	9.0	2.5	/experiments/knapen_AOT/AOT_stimuli/rescaled_final/1657_fw.mp4	0.0	104.6476628780365	0.09998917579650879
12	88.02954006195068	fix_pre	0		120	10.0	2.5	/experiments/knapen_AOT/AOT_stimuli/rescaled_final/0411_fw.mp4	0.0	104.74765205383301	1.0001628398895264
12	88.2130970954895	pulse	0	t		10.0	2.5	/experiments/knapen_AOT/AOT_stimuli/rescaled_final/0411_fw.mp4	0.0	104.93120908737183	
12	89.02970290184021	movie	1		243	10.0	2.5	/experiments/knapen_AOT/AOT_stimuli/rescaled_final/0411_fw.mp4	0.0	105.74781489372253	2.500490188598633
12	89.81327605247498	pulse	1	t		10.0	2.5	/experiments/knapen_AOT/AOT_stimuli/rescaled_final/0411_fw.mp4	0.0	106.5313880443573	
12	91.41371202468872	pulse	1	t		10.0	2.5	/experiments/knapen_AOT/AOT_stimuli/rescaled_final/0411_fw.mp4	0.0	108.13182401657104	
12	91.53019309043884	fix_post	2		12	10.0	2.5	/experiments/knapen_AOT/AOT_stimuli/rescaled_final/0411_fw.mp4	0.0	108.24830508232117	0.0998849868774414
13	91.63007807731628	fix_pre	0		120	11.0	2.5	/experiments/knapen_AOT/AOT_stimuli/rescaled_final/1417_fw.mp4	0.0	108.34819006919861	1.0001468658447266
13	92.63022494316101	movie	1		242	11.0	2.5	/experiments/knapen_AOT/AOT_stimuli/rescaled_final/1417_fw.mp4	0.0	109.34833693504333	2.492048978805542
13	93.01838707923889	pulse	1	t		11.0	2.5	/experiments/knapen_AOT/AOT_stimuli/rescaled_final/1417_fw.mp4	0.0	109.73649907112122	
13	94.61411595344543	pulse	1	t		11.0	2.5	/experiments/knapen_AOT/AOT_stimuli/rescaled_final/1417_fw.mp4	0.0	111.33222794532776	
13	95.12227392196655	fix_post	2		12	11.0	2.5	/experiments/knapen_AOT/AOT_stimuli/rescaled_final/1417_fw.mp4	0.0	111.84038591384888	0.10002613067626953
14	95.22230005264282	fix_pre	0		120	12.0	2.5	blank	1.0	111.94041204452515	1.0001609325408936
14	96.21427297592163	pulse	0	t		12.0	2.5	blank	1.0	112.93238496780396	
14	96.22246098518372	movie	1		301	12.0	2.5	blank	1.0	112.94057297706604	2.508668899536133
14	97.81450605392456	pulse	1	t		12.0	2.5	blank	1.0	114.53261804580688	
14	98.73112988471985	fix_post	2		12	12.0	2.5	blank	1.0	115.44924187660217	0.10000014305114746
15	98.831130027771	fix_pre	0		116	13.0	2.5	/experiments/knapen_AOT/AOT_stimuli/rescaled_final/0941_rv.mp4	0.0	115.54924201965332	1.0002460479736328
15	99.41474890708923	pulse	0	t		13.0	2.5	/experiments/knapen_AOT/AOT_stimuli/rescaled_final/0941_rv.mp4	0.0	116.13286089897156	
15	99.83137607574463	movie	1		244	13.0	2.5	/experiments/knapen_AOT/AOT_stimuli/rescaled_final/0941_rv.mp4	0.0	116.54948806762695	2.5003089904785156
15	101.01509690284729	pulse	1	t		13.0	2.5	/experiments/knapen_AOT/AOT_stimuli/rescaled_final/0941_rv.mp4	0.0	117.73320889472961	
15	102.33168506622314	fix_post	2		12	13.0	2.5	/experiments/knapen_AOT/AOT_stimuli/rescaled_final/0941_rv.mp4	0.0	119.04979705810547	0.10003781318664551
16	102.43172287940979	fix_pre	0		120	14.0	2.5	/experiments/knapen_AOT/AOT_stimuli/rescaled_final/0219_fw.mp4	0.0	119.14983487129211	1.000162124633789
16	102.61526989936829	pulse	0	t		14.0	2.5	/experiments/knapen_AOT/AOT_stimuli/rescaled_final/0219_fw.mp4	0.0	119.33338189125061	
16	103.43188500404358	movie	1		243	14.0	2.5	/experiments/knapen_AOT/AOT_stimuli/rescaled_final/0219_fw.mp4	0.0	120.1499969959259	2.5003628730773926
16	104.20808386802673	pulse	1	t		14.0	2.5	/experiments/knapen_AOT/AOT_stimuli/rescaled_final/0219_fw.mp4	0.0	120.92619585990906	
16	105.81550407409668	pulse	1	t		14.0	2.5	/experiments/knapen_AOT/AOT_stimuli/rescaled_final/0219_fw.mp4	0.0	122.533616065979	
16	105.93224787712097	fix_post	2		12	14.0	2.5	/experiments/knapen_AOT/AOT_stimuli/rescaled_final/0219_fw.mp4	0.0	122.6503598690033	0.09997105598449707
17	106.03221893310547	fix_pre	0		120	15.0	2.5	/experiments/knapen_AOT/AOT_stimuli/rescaled_final/1309_fw.mp4	0.0	122.7503309249878	1.0001330375671387
17	107.03235197067261	movie	1		242	15.0	2.5	/experiments/knapen_AOT/AOT_stimuli/rescaled_final/1309_fw.mp4	0.0	123.75046396255493	2.4921770095825195
17	107.41656994819641	pulse	1	t		15.0	2.5	/experiments/knapen_AOT/AOT_stimuli/rescaled_final/1309_fw.mp4	0.0	124.13468194007874	
17	109.00811290740967	pulse	1	t		15.0	2.5	/experiments/knapen_AOT/AOT_stimuli/rescaled_final/1309_fw.mp4	0.0	125.72622489929199	
17	109.52452898025513	fix_post	2		12	15.0	2.5	/experiments/knapen_AOT/AOT_stimuli/rescaled_final/1309_fw.mp4	0.0	126.24264097213745	0.09994292259216309
18	109.62447190284729	fix_pre	0		119	16.0	2.5	/experiments/knapen_AOT/AOT_stimuli/rescaled_final/0873_fw.mp4	0.0	126.34258389472961	0.9917659759521484
18	110.60812187194824	pulse	0	t		16.0	2.5	/experiments/knapen_AOT/AOT_stimuli/rescaled_final/0873_fw.mp4	0.0	127.32623386383057	
18	110.61623787879944	movie	1		243	16.0	2.5	/experiments/knapen_AOT/AOT_stimuli/rescaled_final/0873_fw.mp4	0.0	127.33434987068176	2.5087170600891113
18	112.20892286300659	pulse	1	t		16.0	2.5	/experiments/knapen_AOT/AOT_stimuli/rescaled_final/0873_fw.mp4	0.0	128.92703485488892	
18	113.12495493888855	fix_post	2		12	16.0	2.5	/experiments/knapen_AOT/AOT_stimuli/rescaled_final/0873_fw.mp4	0.0	129.84306693077087	0.10008406639099121
19	113.22503900527954	fix_pre	0		120	17.0	2.5	/experiments/knapen_AOT/AOT_stimuli/rescaled_final/1014_fw.mp4	0.0	129.94315099716187	1.000087022781372
19	113.80866503715515	pulse	0	t		17.0	2.5	/experiments/knapen_AOT/AOT_stimuli/rescaled_final/1014_fw.mp4	0.0	130.52677702903748	
19	114.22512602806091	movie	1		242	17.0	2.5	/experiments/knapen_AOT/AOT_stimuli/rescaled_final/1014_fw.mp4	0.0	130.94323801994324	2.5005009174346924
19	115.40897393226624	pulse	1	t		17.0	2.5	/experiments/knapen_AOT/AOT_stimuli/rescaled_final/1014_fw.mp4	0.0	132.12708592414856	
19	116.7256269454956	fix_post	2		12	17.0	2.5	/experiments/knapen_AOT/AOT_stimuli/rescaled_final/1014_fw.mp4	0.0	133.44373893737793	0.09993100166320801
20	116.82555794715881	fix_pre	0		120	18.0	2.5	/experiments/knapen_AOT/AOT_stimuli/rescaled_final/0831_fw.mp4	0.0	133.54366993904114	1.0001189708709717
20	117.00903487205505	pulse	0	t		18.0	2.5	/experiments/knapen_AOT/AOT_stimuli/rescaled_final/0831_fw.mp4	0.0	133.72714686393738	
20	117.82567691802979	movie	1		242	18.0	2.5	/experiments/knapen_AOT/AOT_stimuli/rescaled_final/0831_fw.mp4	0.0	134.5437889099121	2.5004119873046875
20	118.60924100875854	pulse	1	t		18.0	2.5	/experiments/knapen_AOT/AOT_stimuli/rescaled_final/0831_fw.mp4	0.0	135.32735300064087	
20	120.20964193344116	pulse	1	t		18.0	2.5	/experiments/knapen_AOT/AOT_stimuli/rescaled_final/0831_fw.mp4	0.0	136.9277539253235	
20	120.32608890533447	fix_post	2		12	18.0	2.5	/experiments/knapen_AOT/AOT_stimuli/rescaled_final/0831_fw.mp4	0.0	137.0442008972168	0.1000361442565918
21	120.42612504959106	fix_pre	0		120	19.0	2.5	blank	1.0	137.1442370414734	1.0000598430633545
21	121.42618489265442	movie	1		299	19.0	2.5	blank	1.0	138.14429688453674	2.4921610355377197
21	121.80986595153809	pulse	1	t		19.0	2.5	blank	1.0	138.5279779434204	
21	123.40999698638916	pulse	1	t		19.0	2.5	blank	1.0	140.12810897827148	
21	123.91834592819214	fix_post	2		12	19.0	2.5	blank	1.0	140.63645792007446	0.09988212585449219
22	124.01822805404663	fix_pre	0		120	20.0	2.5	/experiments/knapen_AOT/AOT_stimuli/rescaled_final/0409_fw.mp4	0.0	140.73634004592896	1.0001449584960938
22	125.0102059841156	pulse	0	t		20.0	2.5	/experiments/knapen_AOT/AOT_stimuli/rescaled_final/0409_fw.mp4	0.0	141.72831797599792	
22	125.01837301254272	movie	1		244	20.0	2.5	/experiments/knapen_AOT/AOT_stimuli/rescaled_final/0409_fw.mp4	0.0	141.73648500442505	2.508718967437744
22	126.6148328781128	pulse	1	t		20.0	2.5	/experiments/knapen_AOT/AOT_stimuli/rescaled_final/0409_fw.mp4	0.0	143.33294486999512	
22	127.52709197998047	fix_post	2		12	20.0	2.5	/experiments/knapen_AOT/AOT_stimuli/rescaled_final/0409_fw.mp4	0.0	144.2452039718628	0.09999394416809082
23	127.62708592414856	fix_pre	0		120	21.0	2.5	/experiments/knapen_AOT/AOT_stimuli/rescaled_final/1032_rv.mp4	0.0	144.34519791603088	1.0001890659332275
23	128.2108600139618	pulse	0	t		21.0	2.5	/experiments/knapen_AOT/AOT_stimuli/rescaled_final/1032_rv.mp4	0.0	144.92897200584412	
23	128.6272749900818	movie	1		242	21.0	2.5	/experiments/knapen_AOT/AOT_stimuli/rescaled_final/1032_rv.mp4	0.0	145.3453869819641	2.500515937805176
23	129.81116700172424	pulse	1	t		21.0	2.5	/experiments/knapen_AOT/AOT_stimuli/rescaled_final/1032_rv.mp4	0.0	146.52927899360657	
23	131.12779092788696	fix_post	2		12	21.0	2.5	/experiments/knapen_AOT/AOT_stimuli/rescaled_final/1032_rv.mp4	0.0	147.8459029197693	0.09994816780090332
24	131.22773909568787	fix_pre	0		120	22.0	2.5	/experiments/knapen_AOT/AOT_stimuli/rescaled_final/2116_fw.mp4	0.0	147.9458510875702	1.0000829696655273
24	131.4111430644989	pulse	0	t		22.0	2.5	/experiments/knapen_AOT/AOT_stimuli/rescaled_final/2116_fw.mp4	0.0	148.12925505638123	
24	132.2278220653534	movie	1		243	22.0	2.5	/experiments/knapen_AOT/AOT_stimuli/rescaled_final/2116_fw.mp4	0.0	148.94593405723572	2.5003838539123535
24	133.01142692565918	pulse	1	t		22.0	2.5	/experiments/knapen_AOT/AOT_stimuli/rescaled_final/2116_fw.mp4	0.0	149.7295389175415	
24	134.61161708831787	pulse	1	t		22.0	2.5	/experiments/knapen_AOT/AOT_stimuli/rescaled_final/2116_fw.mp4	0.0	151.3297290802002	
24	134.72820591926575	fix_post	2		12	22.0	2.5	/experiments/knapen_AOT/AOT_stimuli/rescaled_final/2116_fw.mp4	0.0	151.44631791114807	0.10000801086425781
25	134.82821393013	fix_pre	0		119	23.0	2.5	/experiments/knapen_AOT/AOT_stimuli/rescaled_final/1436_fw.mp4	0.0	151.54632592201233	0.9917941093444824
25	135.8200080394745	movie	1		243	23.0	2.5	/experiments/knapen_AOT/AOT_stimuli/rescaled_final/1436_fw.mp4	0.0	152.5381200313568	2.5005669593811035
25	136.20778489112854	pulse	1	t		23.0	2.5	/experiments/knapen_AOT/AOT_stimuli/rescaled_final/1436_fw.mp4	0.0	152.92589688301086	
25	137.81219506263733	pulse	1	t		23.0	2.5	/experiments/knapen_AOT/AOT_stimuli/rescaled_final/1436_fw.mp4	0.0	154.53030705451965	
25	138.3205749988556	fix_post	2		12	23.0	2.5	/experiments/knapen_AOT/AOT_stimuli/rescaled_final/1436_fw.mp4	0.0	155.03868699073792	0.09989190101623535
26	138.42046689987183	fix_pre	0		120	24.0	2.5	/experiments/knapen_AOT/AOT_stimuli/rescaled_final/1046_fw.mp4	0.0	155.13857889175415	1.0000970363616943
26	139.4123239517212	pulse	0	t		24.0	2.5	/experiments/knapen_AOT/AOT_stimuli/rescaled_final/1046_fw.mp4	0.0	156.13043594360352	
26	139.42056393623352	movie	1		243	24.0	2.5	/experiments/knapen_AOT/AOT_stimuli/rescaled_final/1046_fw.mp4	0.0	156.13867592811584	2.508695125579834
26	141.0135600566864	pulse	1	t		24.0	2.5	/experiments/knapen_AOT/AOT_stimuli/rescaled_final/1046_fw.mp4	0.0	157.73167204856873	
26	141.92925906181335	fix_post	2		12	24.0	2.5	/experiments/knapen_AOT/AOT_stimuli/rescaled_final/1046_fw.mp4	0.0	158.64737105369568	0.1000359058380127
27	142.02929496765137	fix_pre	0		120	25.0	2.5	/experiments/knapen_AOT/AOT_stimuli/rescaled_final/0219_rv.mp4	0.0	158.7474069595337	1.0001850128173828
27	142.6129288673401	pulse	0	t		25.0	2.5	/experiments/knapen_AOT/AOT_stimuli/rescaled_final/0219_rv.mp4	0.0	159.3310408592224	
27	143.02947998046875	movie	1		243	25.0	2.5	/experiments/knapen_AOT/AOT_stimuli/rescaled_final/0219_rv.mp4	0.0	159.74759197235107	2.5004959106445312
27	144.21325492858887	pulse	1	t		25.0	2.5	/experiments/knapen_AOT/AOT_stimuli/rescaled_final/0219_rv.mp4	0.0	160.9313669204712	
27	145.52997589111328	fix_post	2		12	25.0	2.5	/experiments/knapen_AOT/AOT_stimuli/rescaled_final/0219_rv.mp4	0.0	162.2480878829956	0.09987306594848633
28	145.62984895706177	fix_pre	0		120	26.0	2.5	/experiments/knapen_AOT/AOT_stimuli/rescaled_final/1013_rv.mp4	0.0	162.3479609489441	1.000136137008667
28	145.81328988075256	pulse	0	t		26.0	2.5	/experiments/knapen_AOT/AOT_stimuli/rescaled_final/1013_rv.mp4	0.0	162.5314018726349	
28	146.62998509407043	movie	1		239	26.0	2.5	/experiments/knapen_AOT/AOT_stimuli/rescaled_final/1013_rv.mp4	0.0	163.34809708595276	2.5004518032073975
28	147.41368699073792	pulse	1	t		26.0	2.5	/experiments/knapen_AOT/AOT_stimuli/rescaled_final/1013_rv.mp4	0.0	164.13179898262024	
28	149.0137529373169	pulse	1	t		26.0	2.5	/experiments/knapen_AOT/AOT_stimuli/rescaled_final/1013_rv.mp4	0.0	165.73186492919922	
28	149.13043689727783	fix_post	2		12	26.0	2.5	/experiments/knapen_AOT/AOT_stimuli/rescaled_final/1013_rv.mp4	0.0	165.84854888916016	0.09996914863586426
29	149.2304060459137	fix_pre	0		119	27.0	2.5	/experiments/knapen_AOT/AOT_stimuli/rescaled_final/1391_rv.mp4	0.0	165.94851803779602	0.991736888885498
29	150.2221429347992	movie	1		242	27.0	2.5	/experiments/knapen_AOT/AOT_stimuli/rescaled_final/1391_rv.mp4	0.0	166.94025492668152	2.5005719661712646
29	150.61427402496338	pulse	1	t		27.0	2.5	/experiments/knapen_AOT/AOT_stimuli/rescaled_final/1391_rv.mp4	0.0	167.3323860168457	
29	152.21429204940796	pulse	1	t		27.0	2.5	/experiments/knapen_AOT/AOT_stimuli/rescaled_final/1391_rv.mp4	0.0	168.93240404129028	
29	152.72271490097046	fix_post	2		12	27.0	2.5	/experiments/knapen_AOT/AOT_stimuli/rescaled_final/1391_rv.mp4	0.0	169.44082689285278	0.09990215301513672
30	152.8226170539856	fix_pre	0		120	28.0	2.5	blank	1.0	169.54072904586792	1.000114917755127
30	153.8145558834076	pulse	0	t		28.0	2.5	blank	1.0	170.53266787528992	
30	153.82273197174072	movie	1		301	28.0	2.5	blank	1.0	170.54084396362305	2.508713960647583
30	155.41491603851318	pulse	1	t		28.0	2.5	blank	1.0	172.1330280303955	
30	156.3314459323883	fix_post	2		12	28.0	2.5	blank	1.0	173.04955792427063	0.09999513626098633
31	156.4314410686493	fix_pre	0		120	29.0	2.5	/experiments/knapen_AOT/AOT_stimuli/rescaled_final/1719_fw.mp4	0.0	173.14955306053162	1.0003008842468262
31	157.0075569152832	pulse	0	t		29.0	2.5	/experiments/knapen_AOT/AOT_stimuli/rescaled_final/1719_fw.mp4	0.0	173.72566890716553	
31	157.43174195289612	movie	1		243	29.0	2.5	/experiments/knapen_AOT/AOT_stimuli/rescaled_final/1719_fw.mp4	0.0	174.14985394477844	2.500214099884033
31	158.6153540611267	pulse	1	t		29.0	2.5	/experiments/knapen_AOT/AOT_stimuli/rescaled_final/1719_fw.mp4	0.0	175.33346605300903	
31	159.93195605278015	fix_post	2		12	29.0	2.5	/experiments/knapen_AOT/AOT_stimuli/rescaled_final/1719_fw.mp4	0.0	176.65006804466248	0.1000509262084961
32	160.03200697898865	fix_pre	0		120	30.0	2.5	/experiments/knapen_AOT/AOT_stimuli/rescaled_final/0348_fw.mp4	0.0	176.75011897087097	1.0000929832458496
32	160.20800304412842	pulse	0	t		30.0	2.5	/experiments/knapen_AOT/AOT_stimuli/rescaled_final/0348_fw.mp4	0.0	176.92611503601074	
32	161.0320999622345	movie	1		242	30.0	2.5	/experiments/knapen_AOT/AOT_stimuli/rescaled_final/0348_fw.mp4	0.0	177.75021195411682	2.500572919845581
32	161.80823588371277	pulse	1	t		30.0	2.5	/experiments/knapen_AOT/AOT_stimuli/rescaled_final/0348_fw.mp4	0.0	178.5263478755951	
32	163.40768909454346	pulse	1	t		30.0	2.5	/experiments/knapen_AOT/AOT_stimuli/rescaled_final/0348_fw.mp4	0.0	180.12580108642578	
32	163.53267288208008	fix_post	2		12	30.0	2.5	/experiments/knapen_AOT/AOT_stimuli/rescaled_final/0348_fw.mp4	0.0	180.2507848739624	0.09980010986328125
33	163.63247299194336	fix_pre	0		120	31.0	2.5	/experiments/knapen_AOT/AOT_stimuli/rescaled_final/2128_rv.mp4	0.0	180.35058498382568	1.0002219676971436
33	164.6326949596405	movie	1		242	31.0	2.5	/experiments/knapen_AOT/AOT_stimuli/rescaled_final/2128_rv.mp4	0.0	181.35080695152283	2.4921000003814697
33	165.00783705711365	pulse	1	t		31.0	2.5	/experiments/knapen_AOT/AOT_stimuli/rescaled_final/2128_rv.mp4	0.0	181.72594904899597	
33	166.6082248687744	pulse	1	t		31.0	2.5	/experiments/knapen_AOT/AOT_stimuli/rescaled_final/2128_rv.mp4	0.0	183.32633686065674	
33	167.12479496002197	fix_post	2		12	31.0	2.5	/experiments/knapen_AOT/AOT_stimuli/rescaled_final/2128_rv.mp4	0.0	183.8429069519043	0.09993600845336914
34	167.22473096847534	fix_pre	0		119	32.0	2.5	/experiments/knapen_AOT/AOT_stimuli/rescaled_final/1309_fw.mp4	0.0	183.94284296035767	0.9918711185455322
34	168.2083239555359	pulse	0	t		32.0	2.5	/experiments/knapen_AOT/AOT_stimuli/rescaled_final/1309_fw.mp4	0.0	184.9264359474182	
34	168.21660208702087	movie	1		244	32.0	2.5	/experiments/knapen_AOT/AOT_stimuli/rescaled_final/1309_fw.mp4	0.0	184.9347140789032	2.508678913116455
34	169.8129940032959	pulse	1	t		32.0	2.5	/experiments/knapen_AOT/AOT_stimuli/rescaled_final/1309_fw.mp4	0.0	186.53110599517822	
34	170.72528100013733	fix_post	2		12	32.0	2.5	/experiments/knapen_AOT/AOT_stimuli/rescaled_final/1309_fw.mp4	0.0	187.44339299201965	0.09996604919433594
35	170.82524704933167	fix_pre	0		120	33.0	2.5	blank	1.0	187.543359041214	1.0001599788665771
35	171.4089319705963	pulse	0	t		33.0	2.5	blank	1.0	188.12704396247864	
35	171.82540702819824	movie	1		300	33.0	2.5	blank	1.0	188.54351902008057	2.50039005279541
35	173.00905799865723	pulse	1	t		33.0	2.5	blank	1.0	189.72716999053955	
35	174.32579708099365	fix_post	2		12	33.0	2.5	blank	1.0	191.04390907287598	0.10003280639648438
36	174.42582988739014	fix_pre	0		120	34.0	2.5	/experiments/knapen_AOT/AOT_stimuli/rescaled_final/0653_fw.mp4	0.0	191.14394187927246	1.0000879764556885
36	174.6093909740448	pulse	0	t		34.0	2.5	/experiments/knapen_AOT/AOT_stimuli/rescaled_final/0653_fw.mp4	0.0	191.32750296592712	
36	175.42591786384583	movie	1		242	34.0	2.5	/experiments/knapen_AOT/AOT_stimuli/rescaled_final/0653_fw.mp4	0.0	192.14402985572815	2.5005040168762207
36	176.2096300125122	pulse	1	t		34.0	2.5	/experiments/knapen_AOT/AOT_stimuli/rescaled_final/0653_fw.mp4	0.0	192.92774200439453	
36	177.809711933136	pulse	1	t		34.0	2.5	/experiments/knapen_AOT/AOT_stimuli/rescaled_final/0653_fw.mp4	0.0	194.5278239250183	
36	177.92642188072205	fix_post	2		12	34.0	2.5	/experiments/knapen_AOT/AOT_stimuli/rescaled_final/0653_fw.mp4	0.0	194.64453387260437	0.0999290943145752
37	178.02635097503662	fix_pre	0		119	35.0	2.5	/experiments/knapen_AOT/AOT_stimuli/rescaled_final/0583_fw.mp4	0.0	194.74446296691895	0.991779088973999
37	179.01813006401062	movie	1		242	35.0	2.5	/experiments/knapen_AOT/AOT_stimuli/rescaled_final/0583_fw.mp4	0.0	195.73624205589294	2.50049090385437
37	179.41025590896606	pulse	1	t		35.0	2.5	/experiments/knapen_AOT/AOT_stimuli/rescaled_final/0583_fw.mp4	0.0	196.1283679008484	
37	181.01027393341064	pulse	1	t		35.0	2.5	/experiments/knapen_AOT/AOT_stimuli/rescaled_final/0583_fw.mp4	0.0	197.72838592529297	
37	181.518620967865	fix_post	2		12	35.0	2.5	/experiments/knapen_AOT/AOT_stimuli/rescaled_final/0583_fw.mp4	0.0	198.23673295974731	0.09992003440856934
38	181.61854100227356	fix_pre	0		120	36.0	2.5	/experiments/knapen_AOT/AOT_stimuli/rescaled_final/1032_fw.mp4	0.0	198.33665299415588	1.0001070499420166
38	182.61050295829773	pulse	0	t		36.0	2.5	/experiments/knapen_AOT/AOT_stimuli/rescaled_final/1032_fw.mp4	0.0	199.32861495018005	
38	182.61864805221558	movie	1		243	36.0	2.5	/experiments/knapen_AOT/AOT_stimuli/rescaled_final/1032_fw.mp4	0.0	199.3367600440979	2.5087380409240723
38	184.21143007278442	pulse	1	t		36.0	2.5	/experiments/knapen_AOT/AOT_stimuli/rescaled_final/1032_fw.mp4	0.0	200.92954206466675	
38	185.12738609313965	fix_post	2		12	36.0	2.5	/experiments/knapen_AOT/AOT_stimuli/rescaled_final/1032_fw.mp4	0.0	201.84549808502197	0.10004878044128418
39	185.22743487358093	fix_pre	0		120	37.0	2.5	/experiments/knapen_AOT/AOT_stimuli/rescaled_final/1397_rv.mp4	0.0	201.94554686546326	1.0001020431518555
39	185.81105399131775	pulse	0	t		37.0	2.5	/experiments/knapen_AOT/AOT_stimuli/rescaled_final/1397_rv.mp4	0.0	202.52916598320007	
39	186.2275369167328	movie	1		243	37.0	2.5	/experiments/knapen_AOT/AOT_stimuli/rescaled_final/1397_rv.mp4	0.0	202.9456489086151	2.500584125518799
39	187.41139602661133	pulse	1	t		37.0	2.5	/experiments/knapen_AOT/AOT_stimuli/rescaled_final/1397_rv.mp4	0.0	204.12950801849365	
39	188.7281210422516	fix_post	2		12	37.0	2.5	/experiments/knapen_AOT/AOT_stimuli/rescaled_final/1397_rv.mp4	0.0	205.4462330341339	0.099822998046875
40	188.82794404029846	fix_pre	0		120	38.0	2.5	/experiments/knapen_AOT/AOT_stimuli/rescaled_final/0022_fw.mp4	0.0	205.5460560321808	1.0001349449157715
40	189.0114710330963	pulse	0	t		38.0	2.5	/experiments/knapen_AOT/AOT_stimuli/rescaled_final/0022_fw.mp4	0.0	205.72958302497864	
40	189.82807898521423	movie	1		246	38.0	2.5	/experiments/knapen_AOT/AOT_stimuli/rescaled_final/0022_fw.mp4	0.0	206.54619097709656	2.5003750324249268
40	190.6117160320282	pulse	1	t		38.0	2.5	/experiments/knapen_AOT/AOT_stimuli/rescaled_final/0022_fw.mp4	0.0	207.32982802391052	
40	192.2118899822235	pulse	1	t		38.0	2.5	/experiments/knapen_AOT/AOT_stimuli/rescaled_final/0022_fw.mp4	0.0	208.93000197410583	
40	192.32845401763916	fix_post	2		12	38.0	2.5	/experiments/knapen_AOT/AOT_stimuli/rescaled_final/0022_fw.mp4	0.0	209.04656600952148	0.10003995895385742
41	192.42849397659302	fix_pre	0		120	39.0	2.5	/experiments/knapen_AOT/AOT_stimuli/rescaled_final/0051_fw.mp4	0.0	209.14660596847534	1.0000998973846436
41	193.42859387397766	movie	1		242	39.0	2.5	/experiments/knapen_AOT/AOT_stimuli/rescaled_final/0051_fw.mp4	0.0	210.14670586585999	2.492037057876587
41	193.8128740787506	pulse	1	t		39.0	2.5	/experiments/knapen_AOT/AOT_stimuli/rescaled_final/0051_fw.mp4	0.0	210.53098607063293	
41	195.41237998008728	pulse	1	t		39.0	2.5	/experiments/knapen_AOT/AOT_stimuli/rescaled_final/0051_fw.mp4	0.0	212.1304919719696	
41	195.92063093185425	fix_post	2		12	39.0	2.5	/experiments/knapen_AOT/AOT_stimuli/rescaled_final/0051_fw.mp4	0.0	212.63874292373657	0.10003304481506348
42	196.0206639766693	fix_pre	0		120	40.0	2.5	/experiments/knapen_AOT/AOT_stimuli/rescaled_final/0541_rv.mp4	0.0	212.73877596855164	1.0001471042633057
42	197.0126359462738	pulse	0	t		40.0	2.5	/experiments/knapen_AOT/AOT_stimuli/rescaled_final/0541_rv.mp4	0.0	213.73074793815613	
42	197.02081108093262	movie	1		245	40.0	2.5	/experiments/knapen_AOT/AOT_stimuli/rescaled_final/0541_rv.mp4	0.0	213.73892307281494	2.5086848735809326
42	198.6143159866333	pulse	1	t		40.0	2.5	/experiments/knapen_AOT/AOT_stimuli/rescaled_final/0541_rv.mp4	0.0	215.33242797851562	
42	199.52949595451355	fix_post	2		12	40.0	2.5	/experiments/knapen_AOT/AOT_stimuli/rescaled_final/0541_rv.mp4	0.0	216.24760794639587	0.10008907318115234
43	199.6295850276947	fix_pre	0		120	41.0	2.5	blank	1.0	216.34769701957703	1.000108003616333
43	200.21309995651245	pulse	0	t		41.0	2.5	blank	1.0	216.93121194839478	
43	200.62969303131104	movie	1		300	41.0	2.5	blank	1.0	217.34780502319336	2.5003440380096436
43	201.81338500976562	pulse	1	t		41.0	2.5	blank	1.0	218.53149700164795	
43	203.13003706932068	fix_post	2		12	41.0	2.5	blank	1.0	219.848149061203	0.1000359058380127
44	203.2300729751587	fix_pre	0		120	42.0	2.5	/experiments/knapen_AOT/AOT_stimuli/rescaled_final/0108_fw.mp4	0.0	219.94818496704102	1.000143051147461
44	203.41377687454224	pulse	0	t		42.0	2.5	/experiments/knapen_AOT/AOT_stimuli/rescaled_final/0108_fw.mp4	0.0	220.13188886642456	
44	204.23021602630615	movie	1		248	42.0	2.5	/experiments/knapen_AOT/AOT_stimuli/rescaled_final/0108_fw.mp4	0.0	220.94832801818848	2.5004289150238037
44	205.01388788223267	pulse	1	t		42.0	2.5	/experiments/knapen_AOT/AOT_stimuli/rescaled_final/0108_fw.mp4	0.0	221.731999874115	
44	206.6140968799591	pulse	1	t		42.0	2.5	/experiments/knapen_AOT/AOT_stimuli/rescaled_final/0108_fw.mp4	0.0	223.33220887184143	
44	206.73064494132996	fix_post	2		12	42.0	2.5	/experiments/knapen_AOT/AOT_stimuli/rescaled_final/0108_fw.mp4	0.0	223.44875693321228	0.0999760627746582
45	206.83062100410461	fix_pre	0		120	43.0	2.5	/experiments/knapen_AOT/AOT_stimuli/rescaled_final/0179_rv.mp4	0.0	223.54873299598694	1.0001709461212158
45	207.83079195022583	movie	1		241	43.0	2.5	/experiments/knapen_AOT/AOT_stimuli/rescaled_final/0179_rv.mp4	0.0	224.54890394210815	2.492126941680908
45	208.2148299217224	pulse	1	t		43.0	2.5	/experiments/knapen_AOT/AOT_stimuli/rescaled_final/0179_rv.mp4	0.0	224.93294191360474	
45	209.81469893455505	pulse	1	t		43.0	2.5	/experiments/knapen_AOT/AOT_stimuli/rescaled_final/0179_rv.mp4	0.0	226.53281092643738	
45	210.32291889190674	fix_post	2		12	43.0	2.5	/experiments/knapen_AOT/AOT_stimuli/rescaled_final/0179_rv.mp4	0.0	227.04103088378906	0.09992408752441406
46	210.42284297943115	fix_pre	0		117	44.0	2.5	/experiments/knapen_AOT/AOT_stimuli/rescaled_final/1148_rv.mp4	0.0	227.14095497131348	1.0002059936523438
46	211.41493892669678	pulse	0	t		44.0	2.5	/experiments/knapen_AOT/AOT_stimuli/rescaled_final/1148_rv.mp4	0.0	228.1330509185791	
46	211.4230489730835	movie	1		243	44.0	2.5	/experiments/knapen_AOT/AOT_stimuli/rescaled_final/1148_rv.mp4	0.0	228.14116096496582	2.5086231231689453
46	213.01639699935913	pulse	1	t		44.0	2.5	/experiments/knapen_AOT/AOT_stimuli/rescaled_final/1148_rv.mp4	0.0	229.73450899124146	
46	213.93167209625244	fix_post	2		12	44.0	2.5	/experiments/knapen_AOT/AOT_stimuli/rescaled_final/1148_rv.mp4	0.0	230.64978408813477	0.10007691383361816
47	214.03174901008606	fix_pre	0		120	45.0	2.5	/experiments/knapen_AOT/AOT_stimuli/rescaled_final/0596_rv.mp4	0.0	230.74986100196838	1.0001230239868164
47	214.61526203155518	pulse	0	t		45.0	2.5	/experiments/knapen_AOT/AOT_stimuli/rescaled_final/0596_rv.mp4	0.0	231.3333740234375	
47	215.03187203407288	movie	1		243	45.0	2.5	/experiments/knapen_AOT/AOT_stimuli/rescaled_final/0596_rv.mp4	0.0	231.7499840259552	2.500372886657715
47	216.20842695236206	pulse	1	t		45.0	2.5	/experiments/knapen_AOT/AOT_stimuli/rescaled_final/0596_rv.mp4	0.0	232.92653894424438	
47	217.5322449207306	fix_post	2		12	45.0	2.5	/experiments/knapen_AOT/AOT_stimuli/rescaled_final/0596_rv.mp4	0.0	234.25035691261292	0.09997200965881348
48	217.6322169303894	fix_pre	0		120	46.0	2.5	/experiments/knapen_AOT/AOT_stimuli/rescaled_final/1127_rv.mp4	0.0	234.35032892227173	1.0001399517059326
48	217.80833101272583	pulse	0	t		46.0	2.5	/experiments/knapen_AOT/AOT_stimuli/rescaled_final/1127_rv.mp4	0.0	234.52644300460815	
48	218.63235688209534	movie	1		243	46.0	2.5	/experiments/knapen_AOT/AOT_stimuli/rescaled_final/1127_rv.mp4	0.0	235.35046887397766	2.5005741119384766
48	219.40875101089478	pulse	1	t		46.0	2.5	/experiments/knapen_AOT/AOT_stimuli/rescaled_final/1127_rv.mp4	0.0	236.1268630027771	
48	221.0167429447174	pulse	1	t		46.0	2.5	/experiments/knapen_AOT/AOT_stimuli/rescaled_final/1127_rv.mp4	0.0	237.73485493659973	
48	221.1329309940338	fix_post	2		12	46.0	2.5	/experiments/knapen_AOT/AOT_stimuli/rescaled_final/1127_rv.mp4	0.0	237.85104298591614	0.09987092018127441
49	221.2328019142151	fix_pre	0		120	47.0	2.5	blank	1.0	237.9509139060974	1.0001089572906494
49	222.23291087150574	movie	1		299	47.0	2.5	blank	1.0	238.95102286338806	2.4920480251312256
49	222.60894799232483	pulse	1	t		47.0	2.5	blank	1.0	239.32705998420715	
49	224.2084219455719	pulse	1	t		47.0	2.5	blank	1.0	240.92653393745422	
49	224.72495889663696	fix_post	2		12	47.0	2.5	blank	1.0	241.4430708885193	0.10000801086425781
50	224.82496690750122	fix_pre	0		119	48.0	2.5	/experiments/knapen_AOT/AOT_stimuli/rescaled_final/1446_fw.mp4	0.0	241.54307889938354	0.9917981624603271
50	225.80857801437378	pulse	0	t		48.0	2.5	/experiments/knapen_AOT/AOT_stimuli/rescaled_final/1446_fw.mp4	0.0	242.5266900062561	
50	225.81676506996155	movie	1		244	48.0	2.5	/experiments/knapen_AOT/AOT_stimuli/rescaled_final/1446_fw.mp4	0.0	242.53487706184387	2.50872802734375
50	227.40914702415466	pulse	1	t		48.0	2.5	/experiments/knapen_AOT/AOT_stimuli/rescaled_final/1446_fw.mp4	0.0	244.127259016037	
50	228.3254930973053	fix_post	2		12	48.0	2.5	/experiments/knapen_AOT/AOT_stimuli/rescaled_final/1446_fw.mp4	0.0	245.04360508918762	0.10007381439208984
51	228.4255669116974	fix_pre	0		120	49.0	2.5	/experiments/knapen_AOT/AOT_stimuli/rescaled_final/1998_rv.mp4	0.0	245.1436789035797	1.0001280307769775
51	229.00916504859924	pulse	0	t		49.0	2.5	/experiments/knapen_AOT/AOT_stimuli/rescaled_final/1998_rv.mp4	0.0	245.72727704048157	
51	229.42569494247437	movie	1		242	49.0	2.5	/experiments/knapen_AOT/AOT_stimuli/rescaled_final/1998_rv.mp4	0.0	246.1438069343567	2.5004050731658936
51	230.60936498641968	pulse	1	t		49.0	2.5	/experiments/knapen_AOT/AOT_stimuli/rescaled_final/1998_rv.mp4	0.0	247.327476978302	
51	231.92610001564026	fix_post	2		12	49.0	2.5	/experiments/knapen_AOT/AOT_stimuli/rescaled_final/1998_rv.mp4	0.0	248.64421200752258	0.09992098808288574
52	232.02602100372314	fix_pre	0		120	50.0	2.5	/experiments/knapen_AOT/AOT_stimuli/rescaled_final/0450_rv.mp4	0.0	248.74413299560547	1.0001518726348877
52	232.20963501930237	pulse	0	t		50.0	2.5	/experiments/knapen_AOT/AOT_stimuli/rescaled_final/0450_rv.mp4	0.0	248.9277470111847	
52	233.02617287635803	movie	1		243	50.0	2.5	/experiments/knapen_AOT/AOT_stimuli/rescaled_final/0450_rv.mp4	0.0	249.74428486824036	2.5005500316619873
52	233.80987691879272	pulse	1	t		50.0	2.5	/experiments/knapen_AOT/AOT_stimuli/rescaled_final/0450_rv.mp4	0.0	250.52798891067505	
52	235.41057705879211	pulse	1	t		50.0	2.5	/experiments/knapen_AOT/AOT_stimuli/rescaled_final/0450_rv.mp4	0.0	252.12868905067444	
52	235.52672290802002	fix_post	2		12	50.0	2.5	/experiments/knapen_AOT/AOT_stimuli/rescaled_final/0450_rv.mp4	0.0	252.24483489990234	0.0999290943145752
53	235.6266520023346	fix_pre	0		120	51.0	2.5	/experiments/knapen_AOT/AOT_stimuli/rescaled_final/1490_fw.mp4	0.0	252.34476399421692	1.000082015991211
53	236.6267340183258	movie	1		241	51.0	2.5	/experiments/knapen_AOT/AOT_stimuli/rescaled_final/1490_fw.mp4	0.0	253.34484601020813	2.4922518730163574
53	237.01158499717712	pulse	1	t		51.0	2.5	/experiments/knapen_AOT/AOT_stimuli/rescaled_final/1490_fw.mp4	0.0	253.72969698905945	
53	238.6105670928955	pulse	1	t		51.0	2.5	/experiments/knapen_AOT/AOT_stimuli/rescaled_final/1490_fw.mp4	0.0	255.32867908477783	
53	239.11898589134216	fix_post	2		12	51.0	2.5	/experiments/knapen_AOT/AOT_stimuli/rescaled_final/1490_fw.mp4	0.0	255.8370978832245	0.09982109069824219
54	239.2188069820404	fix_pre	0		120	52.0	2.5	/experiments/knapen_AOT/AOT_stimuli/rescaled_final/0898_fw.mp4	0.0	255.93691897392273	1.0001399517059326
54	240.21090698242188	pulse	0	t		52.0	2.5	/experiments/knapen_AOT/AOT_stimuli/rescaled_final/0898_fw.mp4	0.0	256.9290189743042	
54	240.21894693374634	movie	1		243	52.0	2.5	/experiments/knapen_AOT/AOT_stimuli/rescaled_final/0898_fw.mp4	0.0	256.93705892562866	2.5087411403656006
54	241.8115029335022	pulse	1	t		52.0	2.5	/experiments/knapen_AOT/AOT_stimuli/rescaled_final/0898_fw.mp4	0.0	258.5296149253845	
54	242.72768807411194	fix_post	2		12	52.0	2.5	/experiments/knapen_AOT/AOT_stimuli/rescaled_final/0898_fw.mp4	0.0	259.44580006599426	0.1000218391418457
55	242.82770991325378	fix_pre	0		120	53.0	2.5	/experiments/knapen_AOT/AOT_stimuli/rescaled_final/1760_fw.mp4	0.0	259.5458219051361	1.0002000331878662
55	243.41124486923218	pulse	0	t		53.0	2.5	/experiments/knapen_AOT/AOT_stimuli/rescaled_final/1760_fw.mp4	0.0	260.1293568611145	
55	243.82790994644165	movie	1		242	53.0	2.5	/experiments/knapen_AOT/AOT_stimuli/rescaled_final/1760_fw.mp4	0.0	260.546021938324	2.5002851486206055
55	245.01156902313232	pulse	1	t		53.0	2.5	/experiments/knapen_AOT/AOT_stimuli/rescaled_final/1760_fw.mp4	0.0	261.72968101501465	
55	246.32819509506226	fix_post	2		12	53.0	2.5	/experiments/knapen_AOT/AOT_stimuli/rescaled_final/1760_fw.mp4	0.0	263.0463070869446	0.09996986389160156
56	246.42816495895386	fix_pre	0		120	54.0	2.5	blank	1.0	263.1462769508362	1.0001981258392334
56	246.6118540763855	pulse	0	t		54.0	2.5	blank	1.0	263.3299660682678	
56	247.4283630847931	movie	1		300	54.0	2.5	blank	1.0	264.1464750766754	2.500440835952759
56	248.21202301979065	pulse	1	t		54.0	2.5	blank	1.0	264.930135011673	
56	249.81225609779358	pulse	1	t		54.0	2.5	blank	1.0	266.5303680896759	
56	249.92880392074585	fix_post	2		12	54.0	2.5	blank	1.0	266.6469159126282	0.0999441146850586
57	250.0287480354309	fix_pre	0		120	55.0	2.5	/experiments/knapen_AOT/AOT_stimuli/rescaled_final/1260_fw.mp4	0.0	266.74686002731323	1.0001790523529053
57	251.0289270877838	movie	1		243	55.0	2.5	/experiments/knapen_AOT/AOT_stimuli/rescaled_final/1260_fw.mp4	0.0	267.74703907966614	2.4920217990875244
57	251.41307497024536	pulse	1	t		55.0	2.5	/experiments/knapen_AOT/AOT_stimuli/rescaled_final/1260_fw.mp4	0.0	268.1311869621277	
57	253.0127248764038	pulse	1	t		55.0	2.5	/experiments/knapen_AOT/AOT_stimuli/rescaled_final/1260_fw.mp4	0.0	269.73083686828613	
57	253.52094888687134	fix_post	2		12	55.0	2.5	/experiments/knapen_AOT/AOT_stimuli/rescaled_final/1260_fw.mp4	0.0	270.23906087875366	0.10002803802490234
58	253.62097692489624	fix_pre	0		120	56.0	2.5	/experiments/knapen_AOT/AOT_stimuli/rescaled_final/0414_fw.mp4	0.0	270.33908891677856	1.0001270771026611
58	254.61299991607666	pulse	0	t		56.0	2.5	/experiments/knapen_AOT/AOT_stimuli/rescaled_final/0414_fw.mp4	0.0	271.331111907959	
58	254.6211040019989	movie	1		243	56.0	2.5	/experiments/knapen_AOT/AOT_stimuli/rescaled_final/0414_fw.mp4	0.0	271.3392159938812	2.508713960647583
58	256.21379590034485	pulse	1	t		56.0	2.5	/experiments/knapen_AOT/AOT_stimuli/rescaled_final/0414_fw.mp4	0.0	272.9319078922272	
58	257.1298179626465	fix_post	2		12	56.0	2.5	/experiments/knapen_AOT/AOT_stimuli/rescaled_final/0414_fw.mp4	0.0	273.8479299545288	0.10006999969482422
59	257.2298879623413	fix_pre	0		120	57.0	2.5	/experiments/knapen_AOT/AOT_stimuli/rescaled_final/1540_fw.mp4	0.0	273.94799995422363	1.0000829696655273
59	257.8134059906006	pulse	0	t		57.0	2.5	/experiments/knapen_AOT/AOT_stimuli/rescaled_final/1540_fw.mp4	0.0	274.5315179824829	
59	258.22997093200684	movie	1		243	57.0	2.5	/experiments/knapen_AOT/AOT_stimuli/rescaled_final/1540_fw.mp4	0.0	274.94808292388916	2.5003910064697266
59	259.4137408733368	pulse	1	t		57.0	2.5	/experiments/knapen_AOT/AOT_stimuli/rescaled_final/1540_fw.mp4	0.0	276.1318528652191	
59	260.73036193847656	fix_post	2		12	57.0	2.5	/experiments/knapen_AOT/AOT_stimuli/rescaled_final/1540_fw.mp4	0.0	277.4484739303589	0.10001015663146973
60	260.83037209510803	fix_pre	0		120	58.0	2.5	/experiments/knapen_AOT/AOT_stimuli/rescaled_final/0036_rv.mp4	0.0	277.54848408699036	1.0001869201660156
60	261.0139229297638	pulse	0	t		58.0	2.5	/experiments/knapen_AOT/AOT_stimuli/rescaled_final/0036_rv.mp4	0.0	277.7320349216461	
60	261.83055901527405	movie	1		242	58.0	2.5	/experiments/knapen_AOT/AOT_stimuli/rescaled_final/0036_rv.mp4	0.0	278.5486710071564	2.5004398822784424
60	262.6142258644104	pulse	1	t		58.0	2.5	/experiments/knapen_AOT/AOT_stimuli/rescaled_final/0036_rv.mp4	0.0	279.3323378562927	
60	264.21499586105347	pulse	1	t		58.0	2.5	/experiments/knapen_AOT/AOT_stimuli/rescaled_final/0036_rv.mp4	0.0	280.9331078529358	
60	264.3309988975525	fix_post	2		12	58.0	2.5	/experiments/knapen_AOT/AOT_stimuli/rescaled_final/0036_rv.mp4	0.0	281.0491108894348	0.0999140739440918
61	264.4309129714966	fix_pre	0		120	59.0	2.5	/experiments/knapen_AOT/AOT_stimuli/rescaled_final/0954_rv.mp4	0.0	281.1490249633789	1.000190019607544
61	265.4311029911041	movie	1		243	59.0	2.5	/experiments/knapen_AOT/AOT_stimuli/rescaled_final/0954_rv.mp4	0.0	282.14921498298645	2.4919750690460205
61	265.8166539669037	pulse	1	t		59.0	2.5	/experiments/knapen_AOT/AOT_stimuli/rescaled_final/0954_rv.mp4	0.0	282.534765958786	
61	267.40776205062866	pulse	1	t		59.0	2.5	/experiments/knapen_AOT/AOT_stimuli/rescaled_final/0954_rv.mp4	0.0	284.125874042511	
61	267.92307806015015	fix_post	2		12	59.0	2.5	/experiments/knapen_AOT/AOT_stimuli/rescaled_final/0954_rv.mp4	0.0	284.64119005203247	0.10000181198120117
62	268.02307987213135	fix_pre	0		120	60.0	2.5	/experiments/knapen_AOT/AOT_stimuli/rescaled_final/1684_fw.mp4	0.0	284.7411918640137	1.0001530647277832
62	269.01509404182434	pulse	0	t		60.0	2.5	/experiments/knapen_AOT/AOT_stimuli/rescaled_final/1684_fw.mp4	0.0	285.73320603370667	
62	269.02323293685913	movie	1		244	60.0	2.5	/experiments/knapen_AOT/AOT_stimuli/rescaled_final/1684_fw.mp4	0.0	285.74134492874146	2.50871205329895
62	270.6196939945221	pulse	1	t		60.0	2.5	/experiments/knapen_AOT/AOT_stimuli/rescaled_final/1684_fw.mp4	0.0	287.3378059864044	
62	271.5319449901581	fix_post	2		12	60.0	2.5	/experiments/knapen_AOT/AOT_stimuli/rescaled_final/1684_fw.mp4	0.0	288.2500569820404	0.10003805160522461
63	271.6319830417633	fix_pre	0		120	61.0	2.5	blank	1.0	288.35009503364563	1.0001189708709717
63	272.2080628871918	pulse	0	t		61.0	2.5	blank	1.0	288.9261748790741	
63	272.6321020126343	movie	1		300	61.0	2.5	blank	1.0	289.3502140045166	2.500372886657715
63	273.80838990211487	pulse	1	t		61.0	2.5	blank	1.0	290.5265018939972	
63	275.132474899292	fix_post	2		10	61.0	2.5	blank	1.0	291.8505868911743	0.1000211238861084
64	275.2324960231781	fix_pre	0		120	62.0	2.5	/experiments/knapen_AOT/AOT_stimuli/rescaled_final/1914_rv.mp4	0.0	291.9506080150604	1.0001530647277832
64	275.40849208831787	pulse	0	t		62.0	2.5	/experiments/knapen_AOT/AOT_stimuli/rescaled_final/1914_rv.mp4	0.0	292.1266040802002	
64	276.2326490879059	movie	1		244	62.0	2.5	/experiments/knapen_AOT/AOT_stimuli/rescaled_final/1914_rv.mp4	0.0	292.9507610797882	2.5003879070281982
64	277.00808787345886	pulse	1	t		62.0	2.5	/experiments/knapen_AOT/AOT_stimuli/rescaled_final/1914_rv.mp4	0.0	293.7261998653412	
64	278.6081039905548	pulse	1	t		62.0	2.5	/experiments/knapen_AOT/AOT_stimuli/rescaled_final/1914_rv.mp4	0.0	295.32621598243713	
64	278.7330369949341	fix_post	2		12	62.0	2.5	/experiments/knapen_AOT/AOT_stimuli/rescaled_final/1914_rv.mp4	0.0	295.4511489868164	0.10006189346313477
65	278.8330988883972	fix_pre	0		120	63.0	2.5	/experiments/knapen_AOT/AOT_stimuli/rescaled_final/1240_fw.mp4	0.0	295.55121088027954	1.000087022781372
65	279.8331859111786	movie	1		242	63.0	2.5	/experiments/knapen_AOT/AOT_stimuli/rescaled_final/1240_fw.mp4	0.0	296.5512979030609	2.492069959640503
65	280.2083389759064	pulse	1	t		63.0	2.5	/experiments/knapen_AOT/AOT_stimuli/rescaled_final/1240_fw.mp4	0.0	296.9264509677887	
65	281.80887603759766	pulse	1	t		63.0	2.5	/experiments/knapen_AOT/AOT_stimuli/rescaled_final/1240_fw.mp4	0.0	298.52698802948	
65	282.3252558708191	fix_post	2		12	63.0	2.5	/experiments/knapen_AOT/AOT_stimuli/rescaled_final/1240_fw.mp4	0.0	299.0433678627014	0.09995508193969727
66	282.4252109527588	fix_pre	0		119	64.0	2.5	/experiments/knapen_AOT/AOT_stimuli/rescaled_final/1791_fw.mp4	0.0	299.1433229446411	0.9918410778045654
66	283.4088170528412	pulse	0	t		64.0	2.5	/experiments/knapen_AOT/AOT_stimuli/rescaled_final/1791_fw.mp4	0.0	300.1269290447235	
66	283.41705203056335	movie	1		244	64.0	2.5	/experiments/knapen_AOT/AOT_stimuli/rescaled_final/1791_fw.mp4	0.0	300.1351640224457	2.508687973022461
66	285.0098760128021	pulse	1	t		64.0	2.5	/experiments/knapen_AOT/AOT_stimuli/rescaled_final/1791_fw.mp4	0.0	301.72798800468445	
66	285.9257400035858	fix_post	2		12	64.0	2.5	/experiments/knapen_AOT/AOT_stimuli/rescaled_final/1791_fw.mp4	0.0	302.64385199546814	0.10004687309265137
67	286.02578687667847	fix_pre	0		120	65.0	2.5	/experiments/knapen_AOT/AOT_stimuli/rescaled_final/1791_rv.mp4	0.0	302.7438988685608	1.0001311302185059
67	286.6093330383301	pulse	0	t		65.0	2.5	/experiments/knapen_AOT/AOT_stimuli/rescaled_final/1791_rv.mp4	0.0	303.3274450302124	
67	287.025918006897	movie	1		243	65.0	2.5	/experiments/knapen_AOT/AOT_stimuli/rescaled_final/1791_rv.mp4	0.0	303.7440299987793	2.5004959106445312
67	288.2097260951996	pulse	1	t		65.0	2.5	/experiments/knapen_AOT/AOT_stimuli/rescaled_final/1791_rv.mp4	0.0	304.9278380870819	
67	289.5264139175415	fix_post	2		12	65.0	2.5	/experiments/knapen_AOT/AOT_stimuli/rescaled_final/1791_rv.mp4	0.0	306.2445259094238	0.09993100166320801
68	289.6263449192047	fix_pre	0		120	66.0	2.5	/experiments/knapen_AOT/AOT_stimuli/rescaled_final/1724_rv.mp4	0.0	306.34445691108704	1.000162124633789
68	289.80991291999817	pulse	0	t		66.0	2.5	/experiments/knapen_AOT/AOT_stimuli/rescaled_final/1724_rv.mp4	0.0	306.5280249118805	
68	290.6265070438385	movie	1		243	66.0	2.5	/experiments/knapen_AOT/AOT_stimuli/rescaled_final/1724_rv.mp4	0.0	307.3446190357208	2.5003228187561035
68	291.41006088256836	pulse	1	t		66.0	2.5	/experiments/knapen_AOT/AOT_stimuli/rescaled_final/1724_rv.mp4	0.0	308.1281728744507	
68	293.01026487350464	pulse	1	t		66.0	2.5	/experiments/knapen_AOT/AOT_stimuli/rescaled_final/1724_rv.mp4	0.0	309.72837686538696	
68	293.1268298625946	fix_post	2		12	66.0	2.5	/experiments/knapen_AOT/AOT_stimuli/rescaled_final/1724_rv.mp4	0.0	309.84494185447693	0.09999918937683105
69	293.22682905197144	fix_pre	0		120	67.0	2.5	/experiments/knapen_AOT/AOT_stimuli/rescaled_final/1556_fw.mp4	0.0	309.94494104385376	1.0002269744873047
69	294.22705602645874	movie	1		243	67.0	2.5	/experiments/knapen_AOT/AOT_stimuli/rescaled_final/1556_fw.mp4	0.0	310.94516801834106	2.491986036300659
69	294.6111490726471	pulse	1	t		67.0	2.5	/experiments/knapen_AOT/AOT_stimuli/rescaled_final/1556_fw.mp4	0.0	311.3292610645294	
69	296.21091890335083	pulse	1	t		67.0	2.5	/experiments/knapen_AOT/AOT_stimuli/rescaled_final/1556_fw.mp4	0.0	312.92903089523315	
69	296.7190420627594	fix_post	2		12	67.0	2.5	/experiments/knapen_AOT/AOT_stimuli/rescaled_final/1556_fw.mp4	0.0	313.4371540546417	0.1000058650970459
70	296.81904792785645	fix_pre	0		120	68.0	2.5	/experiments/knapen_AOT/AOT_stimuli/rescaled_final/1487_fw.mp4	0.0	313.53715991973877	1.0001239776611328
70	297.811017036438	pulse	0	t		68.0	2.5	/experiments/knapen_AOT/AOT_stimuli/rescaled_final/1487_fw.mp4	0.0	314.5291290283203	
70	297.8191719055176	movie	1		245	68.0	2.5	/experiments/knapen_AOT/AOT_stimuli/rescaled_final/1487_fw.mp4	0.0	314.5372838973999	2.5087220668792725
70	299.41600704193115	pulse	1	t		68.0	2.5	/experiments/knapen_AOT/AOT_stimuli/rescaled_final/1487_fw.mp4	0.0	316.1341190338135	
70	300.32789397239685	fix_post	2		12	68.0	2.5	/experiments/knapen_AOT/AOT_stimuli/rescaled_final/1487_fw.mp4	0.0	317.0460059642792	0.10005998611450195
71	300.42795395851135	fix_pre	0		120	69.0	2.5	/experiments/knapen_AOT/AOT_stimuli/rescaled_final/0115_fw.mp4	0.0	317.1460659503937	1.000108003616333
71	301.0115668773651	pulse	0	t		69.0	2.5	/experiments/knapen_AOT/AOT_stimuli/rescaled_final/0115_fw.mp4	0.0	317.72967886924744	
71	301.4280619621277	movie	1		244	69.0	2.5	/experiments/knapen_AOT/AOT_stimuli/rescaled_final/0115_fw.mp4	0.0	318.14617395401	2.5004069805145264
71	302.61197304725647	pulse	1	t		69.0	2.5	/experiments/knapen_AOT/AOT_stimuli/rescaled_final/0115_fw.mp4	0.0	319.3300850391388	
71	303.9284689426422	fix_post	2		12	69.0	2.5	/experiments/knapen_AOT/AOT_stimuli/rescaled_final/0115_fw.mp4	0.0	320.64658093452454	0.10004806518554688
72	304.02851700782776	fix_pre	0		120	70.0	2.5	blank	1.0	320.7466289997101	1.0001220703125
72	304.2120780944824	pulse	0	t		70.0	2.5	blank	1.0	320.93019008636475	
72	305.02863907814026	movie	1		300	70.0	2.5	blank	1.0	321.7467510700226	2.5003418922424316
72	305.81222891807556	pulse	1	t		70.0	2.5	blank	1.0	322.5303409099579	
72	307.4123909473419	pulse	1	t		70.0	2.5	blank	1.0	324.13050293922424	
72	307.5289809703827	fix_post	2		12	70.0	2.5	blank	1.0	324.247092962265	0.10002994537353516
73	307.6290109157562	fix_pre	0		120	71.0	2.5	/experiments/knapen_AOT/AOT_stimuli/rescaled_final/0886_rv.mp4	0.0	324.34712290763855	1.000154972076416
73	308.62916588783264	movie	1		242	71.0	2.5	/experiments/knapen_AOT/AOT_stimuli/rescaled_final/0886_rv.mp4	0.0	325.34727787971497	2.492030143737793
73	309.0131108760834	pulse	1	t		71.0	2.5	/experiments/knapen_AOT/AOT_stimuli/rescaled_final/0886_rv.mp4	0.0	325.7312228679657	
73	310.6130678653717	pulse	1	t		71.0	2.5	/experiments/knapen_AOT/AOT_stimuli/rescaled_final/0886_rv.mp4	0.0	327.331179857254	
73	311.12119603157043	fix_post	2		12	71.0	2.5	/experiments/knapen_AOT/AOT_stimuli/rescaled_final/0886_rv.mp4	0.0	327.83930802345276	0.09998583793640137
74	311.22118186950684	fix_pre	0		120	72.0	2.5	/experiments/knapen_AOT/AOT_stimuli/rescaled_final/0898_rv.mp4	0.0	327.93929386138916	1.0002541542053223
74	312.2131700515747	pulse	0	t		72.0	2.5	/experiments/knapen_AOT/AOT_stimuli/rescaled_final/0898_rv.mp4	0.0	328.93128204345703	
74	312.22143602371216	movie	1		243	72.0	2.5	/experiments/knapen_AOT/AOT_stimuli/rescaled_final/0898_rv.mp4	0.0	328.9395480155945	2.5086779594421387
74	313.81412506103516	pulse	1	t		72.0	2.5	/experiments/knapen_AOT/AOT_stimuli/rescaled_final/0898_rv.mp4	0.0	330.5322370529175	
74	314.7301139831543	fix_post	2		12	72.0	2.5	/experiments/knapen_AOT/AOT_stimuli/rescaled_final/0898_rv.mp4	0.0	331.4482259750366	0.09995102882385254
75	314.83006501197815	fix_pre	0		120	73.0	2.5	/experiments/knapen_AOT/AOT_stimuli/rescaled_final/0880_fw.mp4	0.0	331.5481770038605	1.0001580715179443
75	315.4137918949127	pulse	0	t		73.0	2.5	/experiments/knapen_AOT/AOT_stimuli/rescaled_final/0880_fw.mp4	0.0	332.13190388679504	
75	315.8302230834961	movie	1		243	73.0	2.5	/experiments/knapen_AOT/AOT_stimuli/rescaled_final/0880_fw.mp4	0.0	332.5483350753784	2.5005738735198975
75	317.01409697532654	pulse	1	t		73.0	2.5	/experiments/knapen_AOT/AOT_stimuli/rescaled_final/0880_fw.mp4	0.0	333.73220896720886	
75	318.330796957016	fix_post	2		12	73.0	2.5	/experiments/knapen_AOT/AOT_stimuli/rescaled_final/0880_fw.mp4	0.0	335.0489089488983	0.09980201721191406
76	318.4305989742279	fix_pre	0		120	74.0	2.5	/experiments/knapen_AOT/AOT_stimuli/rescaled_final/0409_fw.mp4	0.0	335.14871096611023	1.0002191066741943
76	318.6141800880432	pulse	0	t		74.0	2.5	/experiments/knapen_AOT/AOT_stimuli/rescaled_final/0409_fw.mp4	0.0	335.33229207992554	
76	319.4308180809021	movie	1		243	74.0	2.5	/experiments/knapen_AOT/AOT_stimuli/rescaled_final/0409_fw.mp4	0.0	336.1489300727844	2.500319004058838
76	320.21437788009644	pulse	1	t		74.0	2.5	/experiments/knapen_AOT/AOT_stimuli/rescaled_final/0409_fw.mp4	0.0	336.93248987197876	
76	321.8145320415497	pulse	1	t		74.0	2.5	/experiments/knapen_AOT/AOT_stimuli/rescaled_final/0409_fw.mp4	0.0	338.532644033432	
76	321.93113708496094	fix_post	2		12	74.0	2.5	/experiments/knapen_AOT/AOT_stimuli/rescaled_final/0409_fw.mp4	0.0	338.64924907684326	0.0999898910522461
77	322.0311269760132	fix_pre	0		120	75.0	2.5	blank	1.0	338.7492389678955	1.000243902206421
77	323.0313708782196	movie	1		299	75.0	2.5	blank	1.0	339.74948287010193	2.4920291900634766
77	323.41492199897766	pulse	1	t		75.0	2.5	blank	1.0	340.13303399086	
77	325.0078499317169	pulse	1	t		75.0	2.5	blank	1.0	341.72596192359924	
77	325.5234000682831	fix_post	2		12	75.0	2.5	blank	1.0	342.2415120601654	0.09994697570800781
78	325.6233470439911	fix_pre	0		120	76.0	2.5	/experiments/knapen_AOT/AOT_stimuli/rescaled_final/0033_fw.mp4	0.0	342.3414590358734	1.0001659393310547
78	326.60791206359863	pulse	0	t		76.0	2.5	/experiments/knapen_AOT/AOT_stimuli/rescaled_final/0033_fw.mp4	0.0	343.32602405548096	
78	326.62351298332214	movie	1		245	76.0	2.5	/experiments/knapen_AOT/AOT_stimuli/rescaled_final/0033_fw.mp4	0.0	343.34162497520447	2.508676052093506
78	328.21656489372253	pulse	1	t		76.0	2.5	/experiments/knapen_AOT/AOT_stimuli/rescaled_final/0033_fw.mp4	0.0	344.93467688560486	
78	329.13218903541565	fix_post	2		12	76.0	2.5	/experiments/knapen_AOT/AOT_stimuli/rescaled_final/0033_fw.mp4	0.0	345.850301027298	0.10000395774841309
79	329.23219299316406	fix_pre	0		120	77.0	2.5	/experiments/knapen_AOT/AOT_stimuli/rescaled_final/0954_rv.mp4	0.0	345.9503049850464	1.00016188621521
79	329.80762100219727	pulse	0	t		77.0	2.5	/experiments/knapen_AOT/AOT_stimuli/rescaled_final/0954_rv.mp4	0.0	346.5257329940796	
79	330.2323548793793	movie	1		244	77.0	2.5	/experiments/knapen_AOT/AOT_stimuli/rescaled_final/0954_rv.mp4	0.0	346.9504668712616	2.500460147857666
79	331.4081919193268	pulse	1	t		77.0	2.5	/experiments/knapen_AOT/AOT_stimuli/rescaled_final/0954_rv.mp4	0.0	348.1263039112091	
79	332.73281502723694	fix_post	2		12	77.0	2.5	/experiments/knapen_AOT/AOT_stimuli/rescaled_final/0954_rv.mp4	0.0	349.45092701911926	0.09995293617248535
80	332.8327679634094	fix_pre	0		120	78.0	2.5	/experiments/knapen_AOT/AOT_stimuli/rescaled_final/0941_fw.mp4	0.0	349.55087995529175	1.0001590251922607
80	333.0079119205475	pulse	0	t		78.0	2.5	/experiments/knapen_AOT/AOT_stimuli/rescaled_final/0941_fw.mp4	0.0	349.7260239124298	
80	333.8329269886017	movie	1		244	78.0	2.5	/experiments/knapen_AOT/AOT_stimuli/rescaled_final/0941_fw.mp4	0.0	350.551038980484	2.5003468990325928
80	334.6082229614258	pulse	1	t		78.0	2.5	/experiments/knapen_AOT/AOT_stimuli/rescaled_final/0941_fw.mp4	0.0	351.3263349533081	
80	336.208370923996	pulse	1	t		78.0	2.5	/experiments/knapen_AOT/AOT_stimuli/rescaled_final/0941_fw.mp4	0.0	352.9264829158783	
80	336.3332738876343	fix_post	2		9	78.0	2.5	/experiments/knapen_AOT/AOT_stimuli/rescaled_final/0941_fw.mp4	0.0	353.0513858795166	0.10000014305114746
81	336.4332740306854	fix_pre	0		119	79.0	2.5	/experiments/knapen_AOT/AOT_stimuli/rescaled_final/0692_rv.mp4	0.0	353.15138602256775	0.9918708801269531
81	337.4251449108124	movie	1		242	79.0	2.5	/experiments/knapen_AOT/AOT_stimuli/rescaled_final/0692_rv.mp4	0.0	354.1432569026947	2.500462055206299
81	337.80932688713074	pulse	1	t		79.0	2.5	/experiments/knapen_AOT/AOT_stimuli/rescaled_final/0692_rv.mp4	0.0	354.52743887901306	
81	339.4089779853821	pulse	1	t		79.0	2.5	/experiments/knapen_AOT/AOT_stimuli/rescaled_final/0692_rv.mp4	0.0	356.1270899772644	
81	339.9256069660187	fix_post	2		12	79.0	2.5	/experiments/knapen_AOT/AOT_stimuli/rescaled_final/0692_rv.mp4	0.0	356.643718957901	0.09993100166320801
82	340.0255379676819	fix_pre	0		119	80.0	2.5	/experiments/knapen_AOT/AOT_stimuli/rescaled_final/0574_fw.mp4	0.0	356.7436499595642	0.9917891025543213
82	341.00917387008667	pulse	0	t		80.0	2.5	/experiments/knapen_AOT/AOT_stimuli/rescaled_final/0574_fw.mp4	0.0	357.727285861969	
82	341.0173270702362	movie	1		246	80.0	2.5	/experiments/knapen_AOT/AOT_stimuli/rescaled_final/0574_fw.mp4	0.0	357.73543906211853	2.5087318420410156
82	342.610023021698	pulse	1	t		80.0	2.5	/experiments/knapen_AOT/AOT_stimuli/rescaled_final/0574_fw.mp4	0.0	359.3281350135803	
82	343.5260589122772	fix_post	2		12	80.0	2.5	/experiments/knapen_AOT/AOT_stimuli/rescaled_final/0574_fw.mp4	0.0	360.24417090415955	0.10004615783691406
83	343.62610507011414	fix_pre	0		120	81.0	2.5	/experiments/knapen_AOT/AOT_stimuli/rescaled_final/1548_fw.mp4	0.0	360.34421706199646	1.0001540184020996
83	344.2096960544586	pulse	0	t		81.0	2.5	/experiments/knapen_AOT/AOT_stimuli/rescaled_final/1548_fw.mp4	0.0	360.92780804634094	
83	344.62625908851624	movie	1		243	81.0	2.5	/experiments/knapen_AOT/AOT_stimuli/rescaled_final/1548_fw.mp4	0.0	361.34437108039856	2.5004608631134033
83	345.8100390434265	pulse	1	t		81.0	2.5	/experiments/knapen_AOT/AOT_stimuli/rescaled_final/1548_fw.mp4	0.0	362.52815103530884	
83	347.12671995162964	fix_post	2		12	81.0	2.5	/experiments/knapen_AOT/AOT_stimuli/rescaled_final/1548_fw.mp4	0.0	363.84483194351196	0.0998389720916748
84	347.2265589237213	fix_pre	0		120	82.0	2.5	/experiments/knapen_AOT/AOT_stimuli/rescaled_final/0347_fw.mp4	0.0	363.94467091560364	1.0002241134643555
84	347.4101929664612	pulse	0	t		82.0	2.5	/experiments/knapen_AOT/AOT_stimuli/rescaled_final/0347_fw.mp4	0.0	364.1283049583435	
84	348.22678303718567	movie	1		242	82.0	2.5	/experiments/knapen_AOT/AOT_stimuli/rescaled_final/0347_fw.mp4	0.0	364.944895029068	2.500391960144043
84	349.0103108882904	pulse	1	t		82.0	2.5	/experiments/knapen_AOT/AOT_stimuli/rescaled_final/0347_fw.mp4	0.0	365.72842288017273	
84	350.6110870838165	pulse	1	t		82.0	2.5	/experiments/knapen_AOT/AOT_stimuli/rescaled_final/0347_fw.mp4	0.0	367.32919907569885	
84	350.7271749973297	fix_post	2		12	82.0	2.5	/experiments/knapen_AOT/AOT_stimuli/rescaled_final/0347_fw.mp4	0.0	367.44528698921204	0.09993696212768555
85	350.8271119594574	fix_pre	0		120	83.0	2.5	blank	1.0	367.5452239513397	1.0002069473266602
85	351.82731890678406	movie	1		299	83.0	2.5	blank	1.0	368.5454308986664	2.4920780658721924
85	352.210932970047	pulse	1	t		83.0	2.5	blank	1.0	368.9290449619293	
85	353.8110890388489	pulse	1	t		83.0	2.5	blank	1.0	370.5292010307312	
85	354.31939697265625	fix_post	2		12	83.0	2.5	blank	1.0	371.0375089645386	0.09994912147521973
87	354.41934609413147	stim	0		1716					371.1374580860138	14.302231788635254
87	355.4112870693207	pulse	0	t						372.129399061203	
87	357.01160287857056	pulse	0	t						373.7297148704529	
87	358.6117489337921	pulse	0	t						375.32986092567444	
87	360.2120518684387	pulse	0	t						376.93016386032104	
87	361.8121979236603	pulse	0	t						378.5303099155426	
87	363.41248202323914	pulse	0	t						380.13059401512146	
87	365.012708902359	pulse	0	t						381.73082089424133	
87	366.6129150390625	pulse	0	t						383.3310270309448	
87	368.2132029533386	pulse	0	t						384.93131494522095	
