trial_nr	onset	event_type	phase	response	nr_frames	movie_index	movie_duration	movie_file	blank	onset_abs	duration
0	0.18323898315429688	stim	0		63					132.92888283729553	0.5251030921936035
0	0.7002241611480713	response	0	space						133.4458680152893	
1	0.7083420753479004	stim	0		3415					133.45398592948914	28.473552942276
1	29.17217707633972	pulse	0	t						161.91782093048096	
1	29.1818950176239	stim	1		1715					161.92753887176514	14.29951810836792
1	30.76300811767578	pulse	1	t						163.50865197181702	
1	32.36337900161743	pulse	1	t						165.10902285575867	
1	33.963412046432495	pulse	1	t						166.70905590057373	
1	35.563791036605835	pulse	1	t						168.30943489074707	
1	37.16395401954651	pulse	1	t						169.90959787368774	
1	38.764277935028076	pulse	1	t						171.5099217891693	
1	40.36448907852173	pulse	1	t						173.11013293266296	
1	41.9647331237793	pulse	1	t						174.71037697792053	
2	43.48141312599182	fix_pre	0		11	0.0	2.5	/experiments/knapen_AOT/AOT_stimuli/rescaled_final/2045_rv.mp4	0.0	176.22705698013306	0.09160590171813965
2	43.56503510475159	pulse	0	t		0.0	2.5	/experiments/knapen_AOT/AOT_stimuli/rescaled_final/2045_rv.mp4	0.0	176.31067895889282	
2	43.57301902770996	movie	1		244	0.0	2.5	/experiments/knapen_AOT/AOT_stimuli/rescaled_final/2045_rv.mp4	0.0	176.3186628818512	2.5087931156158447
2	45.16663312911987	pulse	1	t		0.0	2.5	/experiments/knapen_AOT/AOT_stimuli/rescaled_final/2045_rv.mp4	0.0	177.9122769832611	
2	46.081812143325806	fix_post	2		12	0.0	2.5	/experiments/knapen_AOT/AOT_stimuli/rescaled_final/2045_rv.mp4	0.0	178.82745599746704	0.10000300407409668
3	46.1818151473999	fix_pre	0		120	1.0	2.5	/experiments/knapen_AOT/AOT_stimuli/rescaled_final/0155_rv.mp4	0.0	178.92745900154114	1.0001158714294434
3	46.76541614532471	pulse	0	t		1.0	2.5	/experiments/knapen_AOT/AOT_stimuli/rescaled_final/0155_rv.mp4	0.0	179.51105999946594	
3	47.181931018829346	movie	1		243	1.0	2.5	/experiments/knapen_AOT/AOT_stimuli/rescaled_final/0155_rv.mp4	0.0	179.92757487297058	2.50040602684021
3	48.36573815345764	pulse	1	t		1.0	2.5	/experiments/knapen_AOT/AOT_stimuli/rescaled_final/0155_rv.mp4	0.0	181.11138200759888	
3	49.682337045669556	fix_post	2		12	1.0	2.5	/experiments/knapen_AOT/AOT_stimuli/rescaled_final/0155_rv.mp4	0.0	182.4279808998108	0.10000300407409668
4	49.78234004974365	fix_pre	0		120	2.0	2.5	/experiments/knapen_AOT/AOT_stimuli/rescaled_final/1951_rv.mp4	0.0	182.5279839038849	1.0001599788665771
4	49.96590709686279	pulse	0	t		2.0	2.5	/experiments/knapen_AOT/AOT_stimuli/rescaled_final/1951_rv.mp4	0.0	182.71155095100403	
4	50.78250002861023	movie	1		243	2.0	2.5	/experiments/knapen_AOT/AOT_stimuli/rescaled_final/1951_rv.mp4	0.0	183.52814388275146	2.50039005279541
4	51.56625199317932	pulse	1	t		2.0	2.5	/experiments/knapen_AOT/AOT_stimuli/rescaled_final/1951_rv.mp4	0.0	184.31189584732056	
4	53.16623902320862	pulse	1	t		2.0	2.5	/experiments/knapen_AOT/AOT_stimuli/rescaled_final/1951_rv.mp4	0.0	185.91188287734985	
4	53.28289008140564	fix_post	2		12	2.0	2.5	/experiments/knapen_AOT/AOT_stimuli/rescaled_final/1951_rv.mp4	0.0	186.02853393554688	0.10000085830688477
5	53.382890939712524	fix_pre	0		120	3.0	2.5	/experiments/knapen_AOT/AOT_stimuli/rescaled_final/2041_fw.mp4	0.0	186.12853479385376	1.0001351833343506
5	54.383026123046875	movie	1		242	3.0	2.5	/experiments/knapen_AOT/AOT_stimuli/rescaled_final/2041_fw.mp4	0.0	187.1286699771881	2.4920458793640137
5	54.76720213890076	pulse	1	t		3.0	2.5	/experiments/knapen_AOT/AOT_stimuli/rescaled_final/2041_fw.mp4	0.0	187.512845993042	
5	56.367023944854736	pulse	1	t		3.0	2.5	/experiments/knapen_AOT/AOT_stimuli/rescaled_final/2041_fw.mp4	0.0	189.11266779899597	
5	56.87507200241089	fix_post	2		12	3.0	2.5	/experiments/knapen_AOT/AOT_stimuli/rescaled_final/2041_fw.mp4	0.0	189.62071585655212	0.10001516342163086
6	56.97508716583252	fix_pre	0		120	4.0	2.5	/experiments/knapen_AOT/AOT_stimuli/rescaled_final/1528_rv.mp4	0.0	189.72073101997375	1.000140905380249
6	57.96715998649597	pulse	0	t		4.0	2.5	/experiments/knapen_AOT/AOT_stimuli/rescaled_final/1528_rv.mp4	0.0	190.7128038406372	
6	57.97522807121277	movie	1		248	4.0	2.5	/experiments/knapen_AOT/AOT_stimuli/rescaled_final/1528_rv.mp4	0.0	190.720871925354	2.50872802734375
6	59.56770300865173	pulse	1	t		4.0	2.5	/experiments/knapen_AOT/AOT_stimuli/rescaled_final/1528_rv.mp4	0.0	192.31334686279297	
6	60.48395609855652	fix_post	2		12	4.0	2.5	/experiments/knapen_AOT/AOT_stimuli/rescaled_final/1528_rv.mp4	0.0	193.22959995269775	0.10002589225769043
7	60.58398199081421	fix_pre	0		120	5.0	2.5	/experiments/knapen_AOT/AOT_stimuli/rescaled_final/1045_rv.mp4	0.0	193.32962584495544	1.000195026397705
7	61.16753816604614	pulse	0	t		5.0	2.5	/experiments/knapen_AOT/AOT_stimuli/rescaled_final/1045_rv.mp4	0.0	193.91318202018738	
7	61.584177017211914	movie	1		244	5.0	2.5	/experiments/knapen_AOT/AOT_stimuli/rescaled_final/1045_rv.mp4	0.0	194.32982087135315	2.500309944152832
7	62.76779007911682	pulse	1	t		5.0	2.5	/experiments/knapen_AOT/AOT_stimuli/rescaled_final/1045_rv.mp4	0.0	195.51343393325806	
7	64.08448696136475	fix_post	2		12	5.0	2.5	/experiments/knapen_AOT/AOT_stimuli/rescaled_final/1045_rv.mp4	0.0	196.83013081550598	0.10005998611450195
8	64.18454694747925	fix_pre	0		120	6.0	2.5	blank	1.0	196.93019080162048	1.000110149383545
8	64.36818599700928	pulse	0	t		6.0	2.5	blank	1.0	197.1138298511505	
8	65.1846570968628	movie	1		300	6.0	2.5	blank	1.0	197.93030095100403	2.500342845916748
8	65.968337059021	pulse	1	t		6.0	2.5	blank	1.0	198.71398091316223	
8	67.5684449672699	pulse	1	t		6.0	2.5	blank	1.0	200.31408882141113	
8	67.68499994277954	fix_post	2		12	6.0	2.5	blank	1.0	200.43064379692078	0.10004711151123047
9	67.78504705429077	fix_pre	0		120	7.0	2.5	/experiments/knapen_AOT/AOT_stimuli/rescaled_final/0393_rv.mp4	0.0	200.530690908432	1.0001270771026611
9	68.78517413139343	movie	1		242	7.0	2.5	/experiments/knapen_AOT/AOT_stimuli/rescaled_final/0393_rv.mp4	0.0	201.53081798553467	2.492067813873291
9	69.16930913925171	pulse	1	t		7.0	2.5	/experiments/knapen_AOT/AOT_stimuli/rescaled_final/0393_rv.mp4	0.0	201.91495299339294	
9	70.76906299591064	pulse	1	t		7.0	2.5	/experiments/knapen_AOT/AOT_stimuli/rescaled_final/0393_rv.mp4	0.0	203.51470685005188	
9	71.27724194526672	fix_post	2		12	7.0	2.5	/experiments/knapen_AOT/AOT_stimuli/rescaled_final/0393_rv.mp4	0.0	204.02288579940796	0.09997820854187012
10	71.3772201538086	fix_pre	0		120	8.0	2.5	/experiments/knapen_AOT/AOT_stimuli/rescaled_final/2021_fw.mp4	0.0	204.12286400794983	1.0001318454742432
10	72.36926198005676	pulse	0	t		8.0	2.5	/experiments/knapen_AOT/AOT_stimuli/rescaled_final/2021_fw.mp4	0.0	205.114905834198	
10	72.37735199928284	movie	1		245	8.0	2.5	/experiments/knapen_AOT/AOT_stimuli/rescaled_final/2021_fw.mp4	0.0	205.12299585342407	2.5087521076202393
10	73.97428107261658	pulse	1	t		8.0	2.5	/experiments/knapen_AOT/AOT_stimuli/rescaled_final/2021_fw.mp4	0.0	206.7199249267578	
10	74.88610410690308	fix_post	2		12	8.0	2.5	/experiments/knapen_AOT/AOT_stimuli/rescaled_final/2021_fw.mp4	0.0	207.6317479610443	0.10013198852539062
11	74.98623609542847	fix_pre	0		120	9.0	2.5	/experiments/knapen_AOT/AOT_stimuli/rescaled_final/1195_fw.mp4	0.0	207.7318799495697	1.000014066696167
11	75.56231999397278	pulse	0	t		9.0	2.5	/experiments/knapen_AOT/AOT_stimuli/rescaled_final/1195_fw.mp4	0.0	208.307963848114	
11	75.98625016212463	movie	1		244	9.0	2.5	/experiments/knapen_AOT/AOT_stimuli/rescaled_final/1195_fw.mp4	0.0	208.73189401626587	2.50036883354187
11	77.16234397888184	pulse	1	t		9.0	2.5	/experiments/knapen_AOT/AOT_stimuli/rescaled_final/1195_fw.mp4	0.0	209.90798783302307	
11	78.4866189956665	fix_post	2		12	9.0	2.5	/experiments/knapen_AOT/AOT_stimuli/rescaled_final/1195_fw.mp4	0.0	211.23226284980774	0.10005998611450195
12	78.586678981781	fix_pre	0		117	10.0	2.5	/experiments/knapen_AOT/AOT_stimuli/rescaled_final/0416_rv.mp4	0.0	211.33232283592224	1.0001001358032227
12	78.76266598701477	pulse	0	t		10.0	2.5	/experiments/knapen_AOT/AOT_stimuli/rescaled_final/0416_rv.mp4	0.0	211.508309841156	
12	79.58677911758423	movie	1		244	10.0	2.5	/experiments/knapen_AOT/AOT_stimuli/rescaled_final/0416_rv.mp4	0.0	212.33242297172546	2.5003819465637207
12	80.36221098899841	pulse	1	t		10.0	2.5	/experiments/knapen_AOT/AOT_stimuli/rescaled_final/0416_rv.mp4	0.0	213.10785484313965	
12	81.96232604980469	pulse	1	t		10.0	2.5	/experiments/knapen_AOT/AOT_stimuli/rescaled_final/0416_rv.mp4	0.0	214.70796990394592	
12	82.08716106414795	fix_post	2		12	10.0	2.5	/experiments/knapen_AOT/AOT_stimuli/rescaled_final/0416_rv.mp4	0.0	214.83280491828918	0.09999990463256836
13	82.18716096878052	fix_pre	0		120	11.0	2.5	/experiments/knapen_AOT/AOT_stimuli/rescaled_final/0416_fw.mp4	0.0	214.93280482292175	1.0001490116119385
13	83.18730998039246	movie	1		243	11.0	2.5	/experiments/knapen_AOT/AOT_stimuli/rescaled_final/0416_fw.mp4	0.0	215.9329538345337	2.4920589923858643
13	83.56249904632568	pulse	1	t		11.0	2.5	/experiments/knapen_AOT/AOT_stimuli/rescaled_final/0416_fw.mp4	0.0	216.30814290046692	
13	85.16299605369568	pulse	1	t		11.0	2.5	/experiments/knapen_AOT/AOT_stimuli/rescaled_final/0416_fw.mp4	0.0	217.9086399078369	
13	85.67936897277832	fix_post	2		12	11.0	2.5	/experiments/knapen_AOT/AOT_stimuli/rescaled_final/0416_fw.mp4	0.0	218.42501282691956	0.10000419616699219
14	85.77937316894531	fix_pre	0		119	12.0	2.5	/experiments/knapen_AOT/AOT_stimuli/rescaled_final/0122_fw.mp4	0.0	218.52501702308655	0.9918677806854248
14	86.7631311416626	pulse	0	t		12.0	2.5	/experiments/knapen_AOT/AOT_stimuli/rescaled_final/0122_fw.mp4	0.0	219.50877499580383	
14	86.77124094963074	movie	1		244	12.0	2.5	/experiments/knapen_AOT/AOT_stimuli/rescaled_final/0122_fw.mp4	0.0	219.51688480377197	2.5086669921875
14	88.36708402633667	pulse	1	t		12.0	2.5	/experiments/knapen_AOT/AOT_stimuli/rescaled_final/0122_fw.mp4	0.0	221.1127278804779	
14	89.27990794181824	fix_post	2		12	12.0	2.5	/experiments/knapen_AOT/AOT_stimuli/rescaled_final/0122_fw.mp4	0.0	222.02555179595947	0.09998011589050293
15	89.37988805770874	fix_pre	0		120	13.0	2.5	blank	1.0	222.12553191184998	1.00022292137146
15	89.96345615386963	pulse	0	t		13.0	2.5	blank	1.0	222.70910000801086	
15	90.3801109790802	movie	1		300	13.0	2.5	blank	1.0	223.12575483322144	2.5003600120544434
15	91.56377506256104	pulse	1	t		13.0	2.5	blank	1.0	224.30941891670227	
15	92.88047099113464	fix_post	2		12	13.0	2.5	blank	1.0	225.62611484527588	0.09995698928833008
16	92.98042798042297	fix_pre	0		120	14.0	2.5	/experiments/knapen_AOT/AOT_stimuli/rescaled_final/0355_rv.mp4	0.0	225.7260718345642	1.000171184539795
16	93.16404294967651	pulse	0	t		14.0	2.5	/experiments/knapen_AOT/AOT_stimuli/rescaled_final/0355_rv.mp4	0.0	225.90968680381775	
16	93.98059916496277	movie	1		245	14.0	2.5	/experiments/knapen_AOT/AOT_stimuli/rescaled_final/0355_rv.mp4	0.0	226.726243019104	2.500370979309082
16	94.76423001289368	pulse	1	t		14.0	2.5	/experiments/knapen_AOT/AOT_stimuli/rescaled_final/0355_rv.mp4	0.0	227.5098738670349	
16	96.36227703094482	pulse	1	t		14.0	2.5	/experiments/knapen_AOT/AOT_stimuli/rescaled_final/0355_rv.mp4	0.0	229.10792088508606	
16	96.48097014427185	fix_post	2		12	14.0	2.5	/experiments/knapen_AOT/AOT_stimuli/rescaled_final/0355_rv.mp4	0.0	229.2266139984131	0.10004591941833496
17	96.58101606369019	fix_pre	0		120	15.0	2.5	/experiments/knapen_AOT/AOT_stimuli/rescaled_final/0056_rv.mp4	0.0	229.32665991783142	1.0001349449157715
17	97.58115100860596	movie	1		244	15.0	2.5	/experiments/knapen_AOT/AOT_stimuli/rescaled_final/0056_rv.mp4	0.0	230.3267948627472	2.4920260906219482
17	97.96584701538086	pulse	1	t		15.0	2.5	/experiments/knapen_AOT/AOT_stimuli/rescaled_final/0056_rv.mp4	0.0	230.7114908695221	
17	99.56498408317566	pulse	1	t		15.0	2.5	/experiments/knapen_AOT/AOT_stimuli/rescaled_final/0056_rv.mp4	0.0	232.3106279373169	
17	100.0731770992279	fix_post	2		12	15.0	2.5	/experiments/knapen_AOT/AOT_stimuli/rescaled_final/0056_rv.mp4	0.0	232.81882095336914	0.10002899169921875
18	100.17320609092712	fix_pre	0		120	16.0	2.5	/experiments/knapen_AOT/AOT_stimuli/rescaled_final/1591_fw.mp4	0.0	232.91884994506836	1.0001418590545654
18	101.16521215438843	pulse	0	t		16.0	2.5	/experiments/knapen_AOT/AOT_stimuli/rescaled_final/1591_fw.mp4	0.0	233.91085600852966	
18	101.17334794998169	movie	1		245	16.0	2.5	/experiments/knapen_AOT/AOT_stimuli/rescaled_final/1591_fw.mp4	0.0	233.91899180412292	2.50871205329895
18	102.76599502563477	pulse	1	t		16.0	2.5	/experiments/knapen_AOT/AOT_stimuli/rescaled_final/1591_fw.mp4	0.0	235.511638879776	
18	103.68206000328064	fix_post	2		12	16.0	2.5	/experiments/knapen_AOT/AOT_stimuli/rescaled_final/1591_fw.mp4	0.0	236.42770385742188	0.10003399848937988
19	103.78209400177002	fix_pre	0		120	17.0	2.5	/experiments/knapen_AOT/AOT_stimuli/rescaled_final/2141_rv.mp4	0.0	236.52773785591125	1.000195026397705
19	104.36570596694946	pulse	0	t		17.0	2.5	/experiments/knapen_AOT/AOT_stimuli/rescaled_final/2141_rv.mp4	0.0	237.1113498210907	
19	104.78228902816772	movie	1		243	17.0	2.5	/experiments/knapen_AOT/AOT_stimuli/rescaled_final/2141_rv.mp4	0.0	237.52793288230896	2.5002830028533936
19	105.96612215042114	pulse	1	t		17.0	2.5	/experiments/knapen_AOT/AOT_stimuli/rescaled_final/2141_rv.mp4	0.0	238.71176600456238	
19	107.28257203102112	fix_post	2		12	17.0	2.5	/experiments/knapen_AOT/AOT_stimuli/rescaled_final/2141_rv.mp4	0.0	240.02821588516235	0.10003900527954102
20	107.38261103630066	fix_pre	0		120	18.0	2.5	/experiments/knapen_AOT/AOT_stimuli/rescaled_final/0239_rv.mp4	0.0	240.1282548904419	1.0001649856567383
20	107.56620597839355	pulse	0	t		18.0	2.5	/experiments/knapen_AOT/AOT_stimuli/rescaled_final/0239_rv.mp4	0.0	240.3118498325348	
20	108.3827760219574	movie	1		244	18.0	2.5	/experiments/knapen_AOT/AOT_stimuli/rescaled_final/0239_rv.mp4	0.0	241.12841987609863	2.500380039215088
20	109.16635394096375	pulse	1	t		18.0	2.5	/experiments/knapen_AOT/AOT_stimuli/rescaled_final/0239_rv.mp4	0.0	241.91199779510498	
20	110.76682496070862	pulse	1	t		18.0	2.5	/experiments/knapen_AOT/AOT_stimuli/rescaled_final/0239_rv.mp4	0.0	243.51246881484985	
20	110.88315606117249	fix_post	2		12	18.0	2.5	/experiments/knapen_AOT/AOT_stimuli/rescaled_final/0239_rv.mp4	0.0	243.62879991531372	0.10002803802490234
21	110.98318409919739	fix_pre	0		120	19.0	2.5	/experiments/knapen_AOT/AOT_stimuli/rescaled_final/1133_rv.mp4	0.0	243.72882795333862	1.0000839233398438
21	111.98326802253723	movie	1		243	19.0	2.5	/experiments/knapen_AOT/AOT_stimuli/rescaled_final/1133_rv.mp4	0.0	244.72891187667847	2.492047071456909
21	112.36799812316895	pulse	1	t		19.0	2.5	/experiments/knapen_AOT/AOT_stimuli/rescaled_final/1133_rv.mp4	0.0	245.11364197731018	
21	113.96725606918335	pulse	1	t		19.0	2.5	/experiments/knapen_AOT/AOT_stimuli/rescaled_final/1133_rv.mp4	0.0	246.71289992332458	
21	114.47531509399414	fix_post	2		12	19.0	2.5	/experiments/knapen_AOT/AOT_stimuli/rescaled_final/1133_rv.mp4	0.0	247.22095894813538	0.10003089904785156
22	114.57534599304199	fix_pre	0		120	20.0	2.5	/experiments/knapen_AOT/AOT_stimuli/rescaled_final/1235_rv.mp4	0.0	247.32098984718323	1.0001389980316162
22	115.56738305091858	pulse	0	t		20.0	2.5	/experiments/knapen_AOT/AOT_stimuli/rescaled_final/1235_rv.mp4	0.0	248.31302690505981	
22	115.57548499107361	movie	1		245	20.0	2.5	/experiments/knapen_AOT/AOT_stimuli/rescaled_final/1235_rv.mp4	0.0	248.32112884521484	2.508707046508789
22	117.16820502281189	pulse	1	t		20.0	2.5	/experiments/knapen_AOT/AOT_stimuli/rescaled_final/1235_rv.mp4	0.0	249.91384887695312	
22	118.0841920375824	fix_post	2		12	20.0	2.5	/experiments/knapen_AOT/AOT_stimuli/rescaled_final/1235_rv.mp4	0.0	250.82983589172363	0.10002613067626953
23	118.18421816825867	fix_pre	0		120	21.0	2.5	blank	1.0	250.9298620223999	1.0001249313354492
23	118.7679181098938	pulse	0	t		21.0	2.5	blank	1.0	251.51356196403503	
23	119.18434309959412	movie	1		300	21.0	2.5	blank	1.0	251.92998695373535	2.5004138946533203
23	120.36813402175903	pulse	1	t		21.0	2.5	blank	1.0	253.11377787590027	
23	121.68475699424744	fix_post	2		12	21.0	2.5	blank	1.0	254.43040084838867	0.09998798370361328
24	121.78474497795105	fix_pre	0		120	22.0	2.5	/experiments/knapen_AOT/AOT_stimuli/rescaled_final/0122_fw.mp4	0.0	254.53038883209229	1.0001351833343506
24	121.96834802627563	pulse	0	t		22.0	2.5	/experiments/knapen_AOT/AOT_stimuli/rescaled_final/0122_fw.mp4	0.0	254.71399188041687	
24	122.7848801612854	movie	1		243	22.0	2.5	/experiments/knapen_AOT/AOT_stimuli/rescaled_final/0122_fw.mp4	0.0	255.53052401542664	2.500375986099243
24	123.56851601600647	pulse	1	t		22.0	2.5	/experiments/knapen_AOT/AOT_stimuli/rescaled_final/0122_fw.mp4	0.0	256.3141598701477	
24	125.16861009597778	pulse	1	t		22.0	2.5	/experiments/knapen_AOT/AOT_stimuli/rescaled_final/0122_fw.mp4	0.0	257.914253950119	
24	125.28525614738464	fix_post	2		12	22.0	2.5	/experiments/knapen_AOT/AOT_stimuli/rescaled_final/0122_fw.mp4	0.0	258.0309000015259	0.10003900527954102
25	125.38529515266418	fix_pre	0		119	23.0	2.5	/experiments/knapen_AOT/AOT_stimuli/rescaled_final/2019_rv.mp4	0.0	258.1309390068054	0.9918098449707031
25	126.37710499763489	movie	1		246	23.0	2.5	/experiments/knapen_AOT/AOT_stimuli/rescaled_final/2019_rv.mp4	0.0	259.1227488517761	2.5003769397735596
25	126.7691330909729	pulse	1	t		23.0	2.5	/experiments/knapen_AOT/AOT_stimuli/rescaled_final/2019_rv.mp4	0.0	259.51477694511414	
25	128.3619110584259	pulse	1	t		23.0	2.5	/experiments/knapen_AOT/AOT_stimuli/rescaled_final/2019_rv.mp4	0.0	261.10755491256714	
25	128.87748193740845	fix_post	2		12	23.0	2.5	/experiments/knapen_AOT/AOT_stimuli/rescaled_final/2019_rv.mp4	0.0	261.6231257915497	0.10001802444458008
26	128.97749996185303	fix_pre	0		120	24.0	2.5	/experiments/knapen_AOT/AOT_stimuli/rescaled_final/1656_rv.mp4	0.0	261.72314381599426	1.0001380443572998
26	129.96199202537537	pulse	0	t		24.0	2.5	/experiments/knapen_AOT/AOT_stimuli/rescaled_final/1656_rv.mp4	0.0	262.7076358795166	
26	129.97763800621033	movie	1		244	24.0	2.5	/experiments/knapen_AOT/AOT_stimuli/rescaled_final/1656_rv.mp4	0.0	262.72328186035156	2.5087239742279053
26	131.57041811943054	pulse	1	t		24.0	2.5	/experiments/knapen_AOT/AOT_stimuli/rescaled_final/1656_rv.mp4	0.0	264.3160619735718	
26	132.48636198043823	fix_post	2		12	24.0	2.5	/experiments/knapen_AOT/AOT_stimuli/rescaled_final/1656_rv.mp4	0.0	265.23200583457947	0.09998106956481934
27	132.58634305000305	fix_pre	0		120	25.0	2.5	/experiments/knapen_AOT/AOT_stimuli/rescaled_final/1719_fw.mp4	0.0	265.3319869041443	1.0001580715179443
27	133.16237616539001	pulse	0	t		25.0	2.5	/experiments/knapen_AOT/AOT_stimuli/rescaled_final/1719_fw.mp4	0.0	265.90802001953125	
27	133.586501121521	movie	1		244	25.0	2.5	/experiments/knapen_AOT/AOT_stimuli/rescaled_final/1719_fw.mp4	0.0	266.33214497566223	2.500365972518921
27	134.76228094100952	pulse	1	t		25.0	2.5	/experiments/knapen_AOT/AOT_stimuli/rescaled_final/1719_fw.mp4	0.0	267.50792479515076	
27	136.08686709403992	fix_post	2		12	25.0	2.5	/experiments/knapen_AOT/AOT_stimuli/rescaled_final/1719_fw.mp4	0.0	268.83251094818115	0.10005903244018555
28	136.1869261264801	fix_pre	0		118	26.0	2.5	/experiments/knapen_AOT/AOT_stimuli/rescaled_final/1213_fw.mp4	0.0	268.93256998062134	1.0001389980316162
28	136.36210203170776	pulse	0	t		26.0	2.5	/experiments/knapen_AOT/AOT_stimuli/rescaled_final/1213_fw.mp4	0.0	269.107745885849	
28	137.18706512451172	movie	1		244	26.0	2.5	/experiments/knapen_AOT/AOT_stimuli/rescaled_final/1213_fw.mp4	0.0	269.93270897865295	2.4920239448547363
28	137.96237111091614	pulse	1	t		26.0	2.5	/experiments/knapen_AOT/AOT_stimuli/rescaled_final/1213_fw.mp4	0.0	270.7080149650574	
28	139.56273794174194	pulse	1	t		26.0	2.5	/experiments/knapen_AOT/AOT_stimuli/rescaled_final/1213_fw.mp4	0.0	272.3083817958832	
28	139.67908906936646	fix_post	2		12	26.0	2.5	/experiments/knapen_AOT/AOT_stimuli/rescaled_final/1213_fw.mp4	0.0	272.4247329235077	0.10000896453857422
29	139.77909803390503	fix_pre	0		120	27.0	2.5	/experiments/knapen_AOT/AOT_stimuli/rescaled_final/1149_fw.mp4	0.0	272.52474188804626	1.0001499652862549
29	140.77924799919128	movie	1		243	27.0	2.5	/experiments/knapen_AOT/AOT_stimuli/rescaled_final/1149_fw.mp4	0.0	273.5248918533325	2.500378131866455
29	141.16404008865356	pulse	1	t		27.0	2.5	/experiments/knapen_AOT/AOT_stimuli/rescaled_final/1149_fw.mp4	0.0	273.9096839427948	
29	142.76311993598938	pulse	1	t		27.0	2.5	/experiments/knapen_AOT/AOT_stimuli/rescaled_final/1149_fw.mp4	0.0	275.5087637901306	
29	143.27962613105774	fix_post	2		12	27.0	2.5	/experiments/knapen_AOT/AOT_stimuli/rescaled_final/1149_fw.mp4	0.0	276.025269985199	0.1000058650970459
30	143.37963199615479	fix_pre	0		119	28.0	2.5	blank	1.0	276.125275850296	0.991826057434082
30	144.36333799362183	pulse	0	t		28.0	2.5	blank	1.0	277.10898184776306	
30	144.37145805358887	movie	1		301	28.0	2.5	blank	1.0	277.1171019077301	2.5087170600891113
30	145.96352100372314	pulse	1	t		28.0	2.5	blank	1.0	278.7091648578644	
30	146.88017511367798	fix_post	2		12	28.0	2.5	blank	1.0	279.6258189678192	0.10000991821289062
31	146.98018503189087	fix_pre	0		120	29.0	2.5	/experiments/knapen_AOT/AOT_stimuli/rescaled_final/2020_fw.mp4	0.0	279.7258288860321	1.0001249313354492
31	147.56376004219055	pulse	0	t		29.0	2.5	/experiments/knapen_AOT/AOT_stimuli/rescaled_final/2020_fw.mp4	0.0	280.3094038963318	
31	147.98030996322632	movie	1		243	29.0	2.5	/experiments/knapen_AOT/AOT_stimuli/rescaled_final/2020_fw.mp4	0.0	280.72595381736755	2.500473976135254
31	149.16424703598022	pulse	1	t		29.0	2.5	/experiments/knapen_AOT/AOT_stimuli/rescaled_final/2020_fw.mp4	0.0	281.90989089012146	
31	150.48078393936157	fix_post	2		12	29.0	2.5	/experiments/knapen_AOT/AOT_stimuli/rescaled_final/2020_fw.mp4	0.0	283.2264277935028	0.09997010231018066
32	150.58075404167175	fix_pre	0		120	30.0	2.5	/experiments/knapen_AOT/AOT_stimuli/rescaled_final/0595_fw.mp4	0.0	283.326397895813	1.0001099109649658
32	150.7644009590149	pulse	0	t		30.0	2.5	/experiments/knapen_AOT/AOT_stimuli/rescaled_final/0595_fw.mp4	0.0	283.5100448131561	
32	151.58086395263672	movie	1		243	30.0	2.5	/experiments/knapen_AOT/AOT_stimuli/rescaled_final/0595_fw.mp4	0.0	284.32650780677795	2.5003631114959717
32	152.36449909210205	pulse	1	t		30.0	2.5	/experiments/knapen_AOT/AOT_stimuli/rescaled_final/0595_fw.mp4	0.0	285.1101429462433	
32	153.96458911895752	pulse	1	t		30.0	2.5	/experiments/knapen_AOT/AOT_stimuli/rescaled_final/0595_fw.mp4	0.0	286.71023297309875	
32	154.0812270641327	fix_post	2		12	30.0	2.5	/experiments/knapen_AOT/AOT_stimuli/rescaled_final/0595_fw.mp4	0.0	286.8268709182739	0.10004091262817383
33	154.18126797676086	fix_pre	0		120	31.0	2.5	/experiments/knapen_AOT/AOT_stimuli/rescaled_final/1502_rv.mp4	0.0	286.9269118309021	1.000133991241455
33	155.18140196800232	movie	1		244	31.0	2.5	/experiments/knapen_AOT/AOT_stimuli/rescaled_final/1502_rv.mp4	0.0	287.92704582214355	2.4920530319213867
33	155.56561398506165	pulse	1	t		31.0	2.5	/experiments/knapen_AOT/AOT_stimuli/rescaled_final/1502_rv.mp4	0.0	288.3112578392029	
33	157.16533613204956	pulse	1	t		31.0	2.5	/experiments/knapen_AOT/AOT_stimuli/rescaled_final/1502_rv.mp4	0.0	289.9109799861908	
33	157.6734549999237	fix_post	2		12	31.0	2.5	/experiments/knapen_AOT/AOT_stimuli/rescaled_final/1502_rv.mp4	0.0	290.41909885406494	0.10008406639099121
34	157.7735390663147	fix_pre	0		120	32.0	2.5	/experiments/knapen_AOT/AOT_stimuli/rescaled_final/1554_fw.mp4	0.0	290.51918292045593	1.000072956085205
34	158.76542615890503	pulse	0	t		32.0	2.5	/experiments/knapen_AOT/AOT_stimuli/rescaled_final/1554_fw.mp4	0.0	291.51107001304626	
34	158.7736120223999	movie	1		245	32.0	2.5	/experiments/knapen_AOT/AOT_stimuli/rescaled_final/1554_fw.mp4	0.0	291.51925587654114	2.5087029933929443
34	160.36660599708557	pulse	1	t		32.0	2.5	/experiments/knapen_AOT/AOT_stimuli/rescaled_final/1554_fw.mp4	0.0	293.1122498512268	
34	161.28231501579285	fix_post	2		12	32.0	2.5	/experiments/knapen_AOT/AOT_stimuli/rescaled_final/1554_fw.mp4	0.0	294.0279588699341	0.09997797012329102
35	161.38229298591614	fix_pre	0		120	33.0	2.5	blank	1.0	294.1279368400574	1.00030517578125
35	161.9659640789032	pulse	0	t		33.0	2.5	blank	1.0	294.71160793304443	
35	162.3825981616974	movie	1		300	33.0	2.5	blank	1.0	295.1282420158386	2.5003249645233154
35	163.56619215011597	pulse	1	t		33.0	2.5	blank	1.0	296.3118360042572	
35	164.8829231262207	fix_post	2		12	33.0	2.5	blank	1.0	297.62856698036194	0.09993481636047363
36	164.98285794258118	fix_pre	0		120	34.0	2.5	/experiments/knapen_AOT/AOT_stimuli/rescaled_final/0987_fw.mp4	0.0	297.7285017967224	1.0001821517944336
36	165.16640400886536	pulse	0	t		34.0	2.5	/experiments/knapen_AOT/AOT_stimuli/rescaled_final/0987_fw.mp4	0.0	297.9120478630066	
36	165.9830400943756	movie	1		244	34.0	2.5	/experiments/knapen_AOT/AOT_stimuli/rescaled_final/0987_fw.mp4	0.0	298.72868394851685	2.5003440380096436
36	166.7667200565338	pulse	1	t		34.0	2.5	/experiments/knapen_AOT/AOT_stimuli/rescaled_final/0987_fw.mp4	0.0	299.51236391067505	
36	168.36712408065796	pulse	1	t		34.0	2.5	/experiments/knapen_AOT/AOT_stimuli/rescaled_final/0987_fw.mp4	0.0	301.1127679347992	
36	168.48338413238525	fix_post	2		12	34.0	2.5	/experiments/knapen_AOT/AOT_stimuli/rescaled_final/0987_fw.mp4	0.0	301.2290279865265	0.10005497932434082
37	168.5834391117096	fix_pre	0		120	35.0	2.5	/experiments/knapen_AOT/AOT_stimuli/rescaled_final/1740_rv.mp4	0.0	301.32908296585083	1.0001130104064941
37	169.5835521221161	movie	1		242	35.0	2.5	/experiments/knapen_AOT/AOT_stimuli/rescaled_final/1740_rv.mp4	0.0	302.3291959762573	2.4920198917388916
37	169.97186994552612	pulse	1	t		35.0	2.5	/experiments/knapen_AOT/AOT_stimuli/rescaled_final/1740_rv.mp4	0.0	302.71751379966736	
37	171.56739115715027	pulse	1	t		35.0	2.5	/experiments/knapen_AOT/AOT_stimuli/rescaled_final/1740_rv.mp4	0.0	304.3130350112915	
37	172.07557201385498	fix_post	2		12	35.0	2.5	/experiments/knapen_AOT/AOT_stimuli/rescaled_final/1740_rv.mp4	0.0	304.8212158679962	0.10004901885986328
38	172.17562103271484	fix_pre	0		120	36.0	2.5	/experiments/knapen_AOT/AOT_stimuli/rescaled_final/0804_rv.mp4	0.0	304.9212648868561	1.0001180171966553
38	173.16764211654663	pulse	0	t		36.0	2.5	/experiments/knapen_AOT/AOT_stimuli/rescaled_final/0804_rv.mp4	0.0	305.91328597068787	
38	173.1757390499115	movie	1		245	36.0	2.5	/experiments/knapen_AOT/AOT_stimuli/rescaled_final/0804_rv.mp4	0.0	305.92138290405273	2.508807897567749
38	174.76853799819946	pulse	1	t		36.0	2.5	/experiments/knapen_AOT/AOT_stimuli/rescaled_final/0804_rv.mp4	0.0	307.5141818523407	
38	175.68454694747925	fix_post	2		12	36.0	2.5	/experiments/knapen_AOT/AOT_stimuli/rescaled_final/0804_rv.mp4	0.0	308.4301908016205	0.09991312026977539
39	175.78446006774902	fix_pre	0		120	37.0	2.5	/experiments/knapen_AOT/AOT_stimuli/rescaled_final/1440_fw.mp4	0.0	308.53010392189026	1.00016188621521
39	176.36808109283447	pulse	0	t		37.0	2.5	/experiments/knapen_AOT/AOT_stimuli/rescaled_final/1440_fw.mp4	0.0	309.1137249469757	
39	176.78462195396423	movie	1		244	37.0	2.5	/experiments/knapen_AOT/AOT_stimuli/rescaled_final/1440_fw.mp4	0.0	309.53026580810547	2.5004520416259766
39	177.96841716766357	pulse	1	t		37.0	2.5	/experiments/knapen_AOT/AOT_stimuli/rescaled_final/1440_fw.mp4	0.0	310.7140610218048	
39	179.2850739955902	fix_post	2		12	37.0	2.5	/experiments/knapen_AOT/AOT_stimuli/rescaled_final/1440_fw.mp4	0.0	312.03071784973145	0.09994006156921387
40	179.38501405715942	fix_pre	0		120	38.0	2.5	/experiments/knapen_AOT/AOT_stimuli/rescaled_final/0815_fw.mp4	0.0	312.13065791130066	1.0001790523529053
40	179.5685269832611	pulse	0	t		38.0	2.5	/experiments/knapen_AOT/AOT_stimuli/rescaled_final/0815_fw.mp4	0.0	312.31417083740234	
40	180.38519310951233	movie	1		243	38.0	2.5	/experiments/knapen_AOT/AOT_stimuli/rescaled_final/0815_fw.mp4	0.0	313.13083696365356	2.5003459453582764
40	181.1688950061798	pulse	1	t		38.0	2.5	/experiments/knapen_AOT/AOT_stimuli/rescaled_final/0815_fw.mp4	0.0	313.91453886032104	
40	182.76909399032593	pulse	1	t		38.0	2.5	/experiments/knapen_AOT/AOT_stimuli/rescaled_final/0815_fw.mp4	0.0	315.51473784446716	
40	182.8855390548706	fix_post	2		12	38.0	2.5	/experiments/knapen_AOT/AOT_stimuli/rescaled_final/0815_fw.mp4	0.0	315.63118290901184	0.09999704360961914
41	182.98553609848022	fix_pre	0		120	39.0	2.5	/experiments/knapen_AOT/AOT_stimuli/rescaled_final/0992_fw.mp4	0.0	315.73117995262146	1.000169038772583
41	183.9857051372528	movie	1		243	39.0	2.5	/experiments/knapen_AOT/AOT_stimuli/rescaled_final/0992_fw.mp4	0.0	316.73134899139404	2.492018938064575
41	184.37410497665405	pulse	1	t		39.0	2.5	/experiments/knapen_AOT/AOT_stimuli/rescaled_final/0992_fw.mp4	0.0	317.1197488307953	
41	185.96947693824768	pulse	1	t		39.0	2.5	/experiments/knapen_AOT/AOT_stimuli/rescaled_final/0992_fw.mp4	0.0	318.7151207923889	
41	186.47772407531738	fix_post	2		12	39.0	2.5	/experiments/knapen_AOT/AOT_stimuli/rescaled_final/0992_fw.mp4	0.0	319.2233679294586	0.1000669002532959
42	186.57779097557068	fix_pre	0		120	40.0	2.5	/experiments/knapen_AOT/AOT_stimuli/rescaled_final/0567_rv.mp4	0.0	319.3234348297119	1.0001380443572998
42	187.56988406181335	pulse	0	t		40.0	2.5	/experiments/knapen_AOT/AOT_stimuli/rescaled_final/0567_rv.mp4	0.0	320.3155279159546	
42	187.57792901992798	movie	1		245	40.0	2.5	/experiments/knapen_AOT/AOT_stimuli/rescaled_final/0567_rv.mp4	0.0	320.3235728740692	2.5086779594421387
42	189.1715099811554	pulse	1	t		40.0	2.5	/experiments/knapen_AOT/AOT_stimuli/rescaled_final/0567_rv.mp4	0.0	321.91715383529663	
42	190.08660697937012	fix_post	2		12	40.0	2.5	/experiments/knapen_AOT/AOT_stimuli/rescaled_final/0567_rv.mp4	0.0	322.83225083351135	0.10001397132873535
43	190.18662095069885	fix_pre	0		120	41.0	2.5	blank	1.0	322.9322648048401	1.0001511573791504
43	190.7629051208496	pulse	0	t		41.0	2.5	blank	1.0	323.50854897499084	
43	191.186772108078	movie	1		300	41.0	2.5	blank	1.0	323.93241596221924	2.500386953353882
43	192.36299204826355	pulse	1	t		41.0	2.5	blank	1.0	325.1086359024048	
43	193.68715906143188	fix_post	2		12	41.0	2.5	blank	1.0	326.4328029155731	0.10000491142272949
44	193.78716397285461	fix_pre	0		120	42.0	2.5	/experiments/knapen_AOT/AOT_stimuli/rescaled_final/2019_fw.mp4	0.0	326.53280782699585	1.0001580715179443
44	193.96312999725342	pulse	0	t		42.0	2.5	/experiments/knapen_AOT/AOT_stimuli/rescaled_final/2019_fw.mp4	0.0	326.70877385139465	
44	194.78732204437256	movie	1		246	42.0	2.5	/experiments/knapen_AOT/AOT_stimuli/rescaled_final/2019_fw.mp4	0.0	327.5329658985138	2.5003650188446045
44	195.56259894371033	pulse	1	t		42.0	2.5	/experiments/knapen_AOT/AOT_stimuli/rescaled_final/2019_fw.mp4	0.0	328.30824279785156	
44	197.16281509399414	pulse	1	t		42.0	2.5	/experiments/knapen_AOT/AOT_stimuli/rescaled_final/2019_fw.mp4	0.0	329.9084589481354	
44	197.28768706321716	fix_post	2		12	42.0	2.5	/experiments/knapen_AOT/AOT_stimuli/rescaled_final/2019_fw.mp4	0.0	330.0333309173584	0.10002589225769043
45	197.38771295547485	fix_pre	0		117	43.0	2.5	/experiments/knapen_AOT/AOT_stimuli/rescaled_final/0649_rv.mp4	0.0	330.1333568096161	1.000150203704834
45	198.3878631591797	movie	1		243	43.0	2.5	/experiments/knapen_AOT/AOT_stimuli/rescaled_final/0649_rv.mp4	0.0	331.1335070133209	2.492025852203369
45	198.76315593719482	pulse	1	t		43.0	2.5	/experiments/knapen_AOT/AOT_stimuli/rescaled_final/0649_rv.mp4	0.0	331.50879979133606	
45	200.36345911026	pulse	1	t		43.0	2.5	/experiments/knapen_AOT/AOT_stimuli/rescaled_final/0649_rv.mp4	0.0	333.10910296440125	
45	200.87988901138306	fix_post	2		12	43.0	2.5	/experiments/knapen_AOT/AOT_stimuli/rescaled_final/0649_rv.mp4	0.0	333.6255328655243	0.10001111030578613
46	200.97990012168884	fix_pre	0		119	44.0	2.5	/experiments/knapen_AOT/AOT_stimuli/rescaled_final/0721_fw.mp4	0.0	333.7255439758301	0.9918508529663086
46	201.96356797218323	pulse	0	t		44.0	2.5	/experiments/knapen_AOT/AOT_stimuli/rescaled_final/0721_fw.mp4	0.0	334.70921182632446	
46	201.97175097465515	movie	1		246	44.0	2.5	/experiments/knapen_AOT/AOT_stimuli/rescaled_final/0721_fw.mp4	0.0	334.7173948287964	2.5086631774902344
46	203.56479406356812	pulse	1	t		44.0	2.5	/experiments/knapen_AOT/AOT_stimuli/rescaled_final/0721_fw.mp4	0.0	336.31043791770935	
46	204.48041415214539	fix_post	2		12	44.0	2.5	/experiments/knapen_AOT/AOT_stimuli/rescaled_final/0721_fw.mp4	0.0	337.2260580062866	0.10002279281616211
47	204.58043694496155	fix_pre	0		120	45.0	2.5	/experiments/knapen_AOT/AOT_stimuli/rescaled_final/1440_rv.mp4	0.0	337.3260807991028	1.0001740455627441
47	205.1640350818634	pulse	0	t		45.0	2.5	/experiments/knapen_AOT/AOT_stimuli/rescaled_final/1440_rv.mp4	0.0	337.90967893600464	
47	205.5806109905243	movie	1		244	45.0	2.5	/experiments/knapen_AOT/AOT_stimuli/rescaled_final/1440_rv.mp4	0.0	338.3262548446655	2.500359058380127
47	206.7643370628357	pulse	1	t		45.0	2.5	/experiments/knapen_AOT/AOT_stimuli/rescaled_final/1440_rv.mp4	0.0	339.50998091697693	
47	208.08097004890442	fix_post	2		12	45.0	2.5	/experiments/knapen_AOT/AOT_stimuli/rescaled_final/1440_rv.mp4	0.0	340.82661390304565	0.10002994537353516
48	208.18099999427795	fix_pre	0		120	46.0	2.5	/experiments/knapen_AOT/AOT_stimuli/rescaled_final/0342_fw.mp4	0.0	340.9266438484192	1.0001261234283447
48	208.36446595191956	pulse	0	t		46.0	2.5	/experiments/knapen_AOT/AOT_stimuli/rescaled_final/0342_fw.mp4	0.0	341.1101098060608	
48	209.1811261177063	movie	1		244	46.0	2.5	/experiments/knapen_AOT/AOT_stimuli/rescaled_final/0342_fw.mp4	0.0	341.92676997184753	2.5003738403320312
48	209.96480703353882	pulse	1	t		46.0	2.5	/experiments/knapen_AOT/AOT_stimuli/rescaled_final/0342_fw.mp4	0.0	342.71045088768005	
48	211.5649790763855	pulse	1	t		46.0	2.5	/experiments/knapen_AOT/AOT_stimuli/rescaled_final/0342_fw.mp4	0.0	344.31062293052673	
48	211.68149995803833	fix_post	2		12	46.0	2.5	/experiments/knapen_AOT/AOT_stimuli/rescaled_final/0342_fw.mp4	0.0	344.42714381217957	0.10001516342163086
49	211.78151512145996	fix_pre	0		119	47.0	2.5	/experiments/knapen_AOT/AOT_stimuli/rescaled_final/1845_rv.mp4	0.0	344.5271589756012	0.9918270111083984
49	212.77334213256836	movie	1		243	47.0	2.5	/experiments/knapen_AOT/AOT_stimuli/rescaled_final/1845_rv.mp4	0.0	345.5189859867096	2.5003769397735596
49	213.16533207893372	pulse	1	t		47.0	2.5	/experiments/knapen_AOT/AOT_stimuli/rescaled_final/1845_rv.mp4	0.0	345.91097593307495	
49	214.76545906066895	pulse	1	t		47.0	2.5	/experiments/knapen_AOT/AOT_stimuli/rescaled_final/1845_rv.mp4	0.0	347.5111029148102	
49	215.27371907234192	fix_post	2		12	47.0	2.5	/experiments/knapen_AOT/AOT_stimuli/rescaled_final/1845_rv.mp4	0.0	348.01936292648315	0.09998202323913574
50	215.37370109558105	fix_pre	0		120	48.0	2.5	blank	1.0	348.1193449497223	1.0001769065856934
50	216.3657660484314	pulse	0	t		48.0	2.5	blank	1.0	349.11140990257263	
50	216.37387800216675	movie	1		301	48.0	2.5	blank	1.0	349.119521856308	2.5087599754333496
50	217.96605896949768	pulse	1	t		48.0	2.5	blank	1.0	350.7117028236389	
50	218.8826379776001	fix_post	2		12	48.0	2.5	blank	1.0	351.62828183174133	0.09995317459106445
51	218.98259115219116	fix_pre	0		120	49.0	2.5	/experiments/knapen_AOT/AOT_stimuli/rescaled_final/0823_fw.mp4	0.0	351.7282350063324	1.0001559257507324
51	219.5662009716034	pulse	0	t		49.0	2.5	/experiments/knapen_AOT/AOT_stimuli/rescaled_final/0823_fw.mp4	0.0	352.31184482574463	
51	219.9827470779419	movie	1		244	49.0	2.5	/experiments/knapen_AOT/AOT_stimuli/rescaled_final/0823_fw.mp4	0.0	352.72839093208313	2.5003628730773926
51	221.16655707359314	pulse	1	t		49.0	2.5	/experiments/knapen_AOT/AOT_stimuli/rescaled_final/0823_fw.mp4	0.0	353.9122009277344	
51	222.4831099510193	fix_post	2		12	49.0	2.5	/experiments/knapen_AOT/AOT_stimuli/rescaled_final/0823_fw.mp4	0.0	355.2287538051605	0.10013318061828613
52	222.58324313163757	fix_pre	0		120	50.0	2.5	/experiments/knapen_AOT/AOT_stimuli/rescaled_final/1798_rv.mp4	0.0	355.3288869857788	1.0001049041748047
52	222.7666871547699	pulse	0	t		50.0	2.5	/experiments/knapen_AOT/AOT_stimuli/rescaled_final/1798_rv.mp4	0.0	355.51233100891113	
52	223.58334803581238	movie	1		244	50.0	2.5	/experiments/knapen_AOT/AOT_stimuli/rescaled_final/1798_rv.mp4	0.0	356.3289918899536	2.5002949237823486
52	224.36702704429626	pulse	1	t		50.0	2.5	/experiments/knapen_AOT/AOT_stimuli/rescaled_final/1798_rv.mp4	0.0	357.1126708984375	
52	225.9672031402588	pulse	1	t		50.0	2.5	/experiments/knapen_AOT/AOT_stimuli/rescaled_final/1798_rv.mp4	0.0	358.7128469944	
52	226.08364295959473	fix_post	2		12	50.0	2.5	/experiments/knapen_AOT/AOT_stimuli/rescaled_final/1798_rv.mp4	0.0	358.82928681373596	0.10002017021179199
53	226.18366312980652	fix_pre	0		120	51.0	2.5	/experiments/knapen_AOT/AOT_stimuli/rescaled_final/0635_fw.mp4	0.0	358.92930698394775	1.000234842300415
53	227.18389797210693	movie	1		243	51.0	2.5	/experiments/knapen_AOT/AOT_stimuli/rescaled_final/0635_fw.mp4	0.0	359.92954182624817	2.4919559955596924
53	227.56880712509155	pulse	1	t		51.0	2.5	/experiments/knapen_AOT/AOT_stimuli/rescaled_final/0635_fw.mp4	0.0	360.3144509792328	
53	229.16765904426575	pulse	1	t		51.0	2.5	/experiments/knapen_AOT/AOT_stimuli/rescaled_final/0635_fw.mp4	0.0	361.913302898407	
53	229.67585396766663	fix_post	2		12	51.0	2.5	/experiments/knapen_AOT/AOT_stimuli/rescaled_final/0635_fw.mp4	0.0	362.42149782180786	0.10005497932434082
54	229.77590894699097	fix_pre	0		120	52.0	2.5	/experiments/knapen_AOT/AOT_stimuli/rescaled_final/0595_rv.mp4	0.0	362.5215528011322	1.000101089477539
54	230.7678620815277	pulse	0	t		52.0	2.5	/experiments/knapen_AOT/AOT_stimuli/rescaled_final/0595_rv.mp4	0.0	363.51350593566895	
54	230.7760100364685	movie	1		245	52.0	2.5	/experiments/knapen_AOT/AOT_stimuli/rescaled_final/0595_rv.mp4	0.0	363.52165389060974	2.508758068084717
54	232.36863803863525	pulse	1	t		52.0	2.5	/experiments/knapen_AOT/AOT_stimuli/rescaled_final/0595_rv.mp4	0.0	365.1142818927765	
54	233.28476810455322	fix_post	2		12	52.0	2.5	/experiments/knapen_AOT/AOT_stimuli/rescaled_final/0595_rv.mp4	0.0	366.03041195869446	0.09998583793640137
55	233.38475394248962	fix_pre	0		120	53.0	2.5	/experiments/knapen_AOT/AOT_stimuli/rescaled_final/1692_rv.mp4	0.0	366.13039779663086	1.0001580715179443
55	233.96840906143188	pulse	0	t		53.0	2.5	/experiments/knapen_AOT/AOT_stimuli/rescaled_final/1692_rv.mp4	0.0	366.7140529155731	
55	234.38491201400757	movie	1		244	53.0	2.5	/experiments/knapen_AOT/AOT_stimuli/rescaled_final/1692_rv.mp4	0.0	367.1305558681488	2.5003750324249268
55	235.56867003440857	pulse	1	t		53.0	2.5	/experiments/knapen_AOT/AOT_stimuli/rescaled_final/1692_rv.mp4	0.0	368.3143138885498	
55	236.8852870464325	fix_post	2		12	53.0	2.5	/experiments/knapen_AOT/AOT_stimuli/rescaled_final/1692_rv.mp4	0.0	369.63093090057373	0.09997200965881348
56	236.9852590560913	fix_pre	0		120	54.0	2.5	blank	1.0	369.73090291023254	1.0001709461212158
56	237.16880798339844	pulse	0	t		54.0	2.5	blank	1.0	369.9144518375397	
56	237.98543000221252	movie	1		300	54.0	2.5	blank	1.0	370.73107385635376	2.5004191398620605
56	238.76913404464722	pulse	1	t		54.0	2.5	blank	1.0	371.51477789878845	
56	240.36938309669495	pulse	1	t		54.0	2.5	blank	1.0	373.1150269508362	
56	240.48584914207458	fix_post	2		12	54.0	2.5	blank	1.0	373.2314929962158	0.09999585151672363
57	240.5858449935913	fix_pre	0		120	55.0	2.5	/experiments/knapen_AOT/AOT_stimuli/rescaled_final/1978_rv.mp4	0.0	373.33148884773254	1.0001211166381836
57	241.5859661102295	movie	1		243	55.0	2.5	/experiments/knapen_AOT/AOT_stimuli/rescaled_final/1978_rv.mp4	0.0	374.3316099643707	2.492037057876587
57	241.97023701667786	pulse	1	t		55.0	2.5	/experiments/knapen_AOT/AOT_stimuli/rescaled_final/1978_rv.mp4	0.0	374.7158808708191	
57	243.56248712539673	pulse	1	t		55.0	2.5	/experiments/knapen_AOT/AOT_stimuli/rescaled_final/1978_rv.mp4	0.0	376.30813097953796	
57	244.07800316810608	fix_post	2		12	55.0	2.5	/experiments/knapen_AOT/AOT_stimuli/rescaled_final/1978_rv.mp4	0.0	376.8236470222473	0.10007596015930176
58	244.17807912826538	fix_pre	0		120	56.0	2.5	/experiments/knapen_AOT/AOT_stimuli/rescaled_final/0041_rv.mp4	0.0	376.9237229824066	1.0000808238983154
58	245.16254711151123	pulse	0	t		56.0	2.5	/experiments/knapen_AOT/AOT_stimuli/rescaled_final/0041_rv.mp4	0.0	377.90819096565247	
58	245.1781599521637	movie	1		247	56.0	2.5	/experiments/knapen_AOT/AOT_stimuli/rescaled_final/0041_rv.mp4	0.0	377.92380380630493	2.508721113204956
58	246.7621819972992	pulse	1	t		56.0	2.5	/experiments/knapen_AOT/AOT_stimuli/rescaled_final/0041_rv.mp4	0.0	379.50782585144043	
58	247.68688106536865	fix_post	2		12	56.0	2.5	/experiments/knapen_AOT/AOT_stimuli/rescaled_final/0041_rv.mp4	0.0	380.4325249195099	0.10001492500305176
59	247.7868959903717	fix_pre	0		120	57.0	2.5	/experiments/knapen_AOT/AOT_stimuli/rescaled_final/2070_fw.mp4	0.0	380.53253984451294	1.0001890659332275
59	248.36215209960938	pulse	0	t		57.0	2.5	/experiments/knapen_AOT/AOT_stimuli/rescaled_final/2070_fw.mp4	0.0	381.1077959537506	
59	248.78708505630493	movie	1		245	57.0	2.5	/experiments/knapen_AOT/AOT_stimuli/rescaled_final/2070_fw.mp4	0.0	381.53272891044617	2.5003929138183594
59	249.9630410671234	pulse	1	t		57.0	2.5	/experiments/knapen_AOT/AOT_stimuli/rescaled_final/2070_fw.mp4	0.0	382.70868492126465	
59	251.2874779701233	fix_post	2		12	57.0	2.5	/experiments/knapen_AOT/AOT_stimuli/rescaled_final/2070_fw.mp4	0.0	384.0331218242645	0.10000300407409668
60	251.3874809741974	fix_pre	0		120	58.0	2.5	/experiments/knapen_AOT/AOT_stimuli/rescaled_final/0568_fw.mp4	0.0	384.1331248283386	1.0001239776611328
60	251.56269907951355	pulse	0	t		58.0	2.5	/experiments/knapen_AOT/AOT_stimuli/rescaled_final/0568_fw.mp4	0.0	384.3083429336548	
60	252.38760495185852	movie	1		243	58.0	2.5	/experiments/knapen_AOT/AOT_stimuli/rescaled_final/0568_fw.mp4	0.0	385.13324880599976	2.500452995300293
60	253.16296410560608	pulse	1	t		58.0	2.5	/experiments/knapen_AOT/AOT_stimuli/rescaled_final/0568_fw.mp4	0.0	385.9086079597473	
60	254.76318311691284	pulse	1	t		58.0	2.5	/experiments/knapen_AOT/AOT_stimuli/rescaled_final/0568_fw.mp4	0.0	387.5088269710541	
60	254.8880579471588	fix_post	2		12	58.0	2.5	/experiments/knapen_AOT/AOT_stimuli/rescaled_final/0568_fw.mp4	0.0	387.63370180130005	0.09994101524353027
61	254.98799896240234	fix_pre	0		119	59.0	2.5	/experiments/knapen_AOT/AOT_stimuli/rescaled_final/0992_fw.mp4	0.0	387.7336428165436	0.9918041229248047
61	255.97980308532715	movie	1		244	59.0	2.5	/experiments/knapen_AOT/AOT_stimuli/rescaled_final/0992_fw.mp4	0.0	388.7254469394684	2.500354051589966
61	256.3647561073303	pulse	1	t		59.0	2.5	/experiments/knapen_AOT/AOT_stimuli/rescaled_final/0992_fw.mp4	0.0	389.11039996147156	
61	257.9635910987854	pulse	1	t		59.0	2.5	/experiments/knapen_AOT/AOT_stimuli/rescaled_final/0992_fw.mp4	0.0	390.70923495292664	
61	258.4801571369171	fix_post	2		12	59.0	2.5	/experiments/knapen_AOT/AOT_stimuli/rescaled_final/0992_fw.mp4	0.0	391.22580099105835	0.10002779960632324
62	258.58018493652344	fix_pre	0		116	60.0	2.5	/experiments/knapen_AOT/AOT_stimuli/rescaled_final/1125_fw.mp4	0.0	391.3258287906647	0.9917950630187988
62	259.56385803222656	pulse	0	t		60.0	2.5	/experiments/knapen_AOT/AOT_stimuli/rescaled_final/1125_fw.mp4	0.0	392.3095018863678	
62	259.57197999954224	movie	1		245	60.0	2.5	/experiments/knapen_AOT/AOT_stimuli/rescaled_final/1125_fw.mp4	0.0	392.3176238536835	2.508697986602783
62	261.1646521091461	pulse	1	t		60.0	2.5	/experiments/knapen_AOT/AOT_stimuli/rescaled_final/1125_fw.mp4	0.0	393.91029596328735	
62	262.080677986145	fix_post	2		12	60.0	2.5	/experiments/knapen_AOT/AOT_stimuli/rescaled_final/1125_fw.mp4	0.0	394.82632184028625	0.10001397132873535
63	262.18069195747375	fix_pre	0		120	61.0	2.5	/experiments/knapen_AOT/AOT_stimuli/rescaled_final/1235_rv.mp4	0.0	394.926335811615	1.0001530647277832
63	262.7643210887909	pulse	0	t		61.0	2.5	/experiments/knapen_AOT/AOT_stimuli/rescaled_final/1235_rv.mp4	0.0	395.50996494293213	
63	263.18084502220154	movie	1		244	61.0	2.5	/experiments/knapen_AOT/AOT_stimuli/rescaled_final/1235_rv.mp4	0.0	395.9264888763428	2.50039005279541
63	264.36470794677734	pulse	1	t		61.0	2.5	/experiments/knapen_AOT/AOT_stimuli/rescaled_final/1235_rv.mp4	0.0	397.1103518009186	
63	265.68123507499695	fix_post	2		12	61.0	2.5	/experiments/knapen_AOT/AOT_stimuli/rescaled_final/1235_rv.mp4	0.0	398.4268789291382	0.1000058650970459
64	265.781240940094	fix_pre	0		120	62.0	2.5	blank	1.0	398.52688479423523	1.0001451969146729
64	265.96488213539124	pulse	0	t		62.0	2.5	blank	1.0	398.71052598953247	
64	266.78138613700867	movie	1		300	62.0	2.5	blank	1.0	399.5270299911499	2.5003738403320312
64	267.56508016586304	pulse	1	t		62.0	2.5	blank	1.0	400.3107240200043	
64	269.165274143219	pulse	1	t		62.0	2.5	blank	1.0	401.91091799736023	
64	269.2817599773407	fix_post	2		12	62.0	2.5	blank	1.0	402.02740383148193	0.10002708435058594
65	269.3817870616913	fix_pre	0		120	63.0	2.5	/experiments/knapen_AOT/AOT_stimuli/rescaled_final/2070_rv.mp4	0.0	402.1274309158325	1.0001089572906494
65	270.38189601898193	movie	1		244	63.0	2.5	/experiments/knapen_AOT/AOT_stimuli/rescaled_final/2070_rv.mp4	0.0	403.12753987312317	2.4921140670776367
65	270.7709410190582	pulse	1	t		63.0	2.5	/experiments/knapen_AOT/AOT_stimuli/rescaled_final/2070_rv.mp4	0.0	403.51658487319946	
65	272.3658380508423	pulse	1	t		63.0	2.5	/experiments/knapen_AOT/AOT_stimuli/rescaled_final/2070_rv.mp4	0.0	405.1114819049835	
65	272.87401008605957	fix_post	2		12	63.0	2.5	/experiments/knapen_AOT/AOT_stimuli/rescaled_final/2070_rv.mp4	0.0	405.6196539402008	0.09997296333312988
66	272.9739830493927	fix_pre	0		120	64.0	2.5	/experiments/knapen_AOT/AOT_stimuli/rescaled_final/1798_fw.mp4	0.0	405.71962690353394	1.000143051147461
66	273.96608304977417	pulse	0	t		64.0	2.5	/experiments/knapen_AOT/AOT_stimuli/rescaled_final/1798_fw.mp4	0.0	406.7117269039154	
66	273.97412610054016	movie	1		244	64.0	2.5	/experiments/knapen_AOT/AOT_stimuli/rescaled_final/1798_fw.mp4	0.0	406.7197699546814	2.508704900741577
66	275.5677421092987	pulse	1	t		64.0	2.5	/experiments/knapen_AOT/AOT_stimuli/rescaled_final/1798_fw.mp4	0.0	408.31338596343994	
66	276.48283100128174	fix_post	2		12	64.0	2.5	/experiments/knapen_AOT/AOT_stimuli/rescaled_final/1798_fw.mp4	0.0	409.228474855423	0.10000801086425781
67	276.582839012146	fix_pre	0		120	65.0	2.5	/experiments/knapen_AOT/AOT_stimuli/rescaled_final/1986_fw.mp4	0.0	409.32848286628723	1.000180959701538
67	277.1664741039276	pulse	0	t		65.0	2.5	/experiments/knapen_AOT/AOT_stimuli/rescaled_final/1986_fw.mp4	0.0	409.91211795806885	
67	277.58301997184753	movie	1		245	65.0	2.5	/experiments/knapen_AOT/AOT_stimuli/rescaled_final/1986_fw.mp4	0.0	410.32866382598877	2.5003631114959717
67	278.76681900024414	pulse	1	t		65.0	2.5	/experiments/knapen_AOT/AOT_stimuli/rescaled_final/1986_fw.mp4	0.0	411.5124628543854	
67	280.0833830833435	fix_post	2		12	65.0	2.5	/experiments/knapen_AOT/AOT_stimuli/rescaled_final/1986_fw.mp4	0.0	412.82902693748474	0.10000300407409668
68	280.1833860874176	fix_pre	0		120	66.0	2.5	/experiments/knapen_AOT/AOT_stimuli/rescaled_final/0045_fw.mp4	0.0	412.92902994155884	1.0001819133758545
68	280.3670301437378	pulse	0	t		66.0	2.5	/experiments/knapen_AOT/AOT_stimuli/rescaled_final/0045_fw.mp4	0.0	413.112673997879	
68	281.18356800079346	movie	1		244	66.0	2.5	/experiments/knapen_AOT/AOT_stimuli/rescaled_final/0045_fw.mp4	0.0	413.9292118549347	2.5004241466522217
68	281.96722316741943	pulse	1	t		66.0	2.5	/experiments/knapen_AOT/AOT_stimuli/rescaled_final/0045_fw.mp4	0.0	414.71286702156067	
68	283.5675530433655	pulse	1	t		66.0	2.5	/experiments/knapen_AOT/AOT_stimuli/rescaled_final/0045_fw.mp4	0.0	416.3131968975067	
68	283.6839921474457	fix_post	2		12	66.0	2.5	/experiments/knapen_AOT/AOT_stimuli/rescaled_final/0045_fw.mp4	0.0	416.4296360015869	0.09996581077575684
69	283.78395795822144	fix_pre	0		120	67.0	2.5	/experiments/knapen_AOT/AOT_stimuli/rescaled_final/0343_rv.mp4	0.0	416.52960181236267	1.000143051147461
69	284.7841010093689	movie	1		243	67.0	2.5	/experiments/knapen_AOT/AOT_stimuli/rescaled_final/0343_rv.mp4	0.0	417.52974486351013	2.4920260906219482
69	285.16814398765564	pulse	1	t		67.0	2.5	/experiments/knapen_AOT/AOT_stimuli/rescaled_final/0343_rv.mp4	0.0	417.9137878417969	
69	286.76802015304565	pulse	1	t		67.0	2.5	/experiments/knapen_AOT/AOT_stimuli/rescaled_final/0343_rv.mp4	0.0	419.5136640071869	
69	287.27612709999084	fix_post	2		12	67.0	2.5	/experiments/knapen_AOT/AOT_stimuli/rescaled_final/0343_rv.mp4	0.0	420.0217709541321	0.10001587867736816
70	287.3761429786682	fix_pre	0		120	68.0	2.5	/experiments/knapen_AOT/AOT_stimuli/rescaled_final/0560_fw.mp4	0.0	420.12178683280945	1.0001320838928223
70	288.3682470321655	pulse	0	t		68.0	2.5	/experiments/knapen_AOT/AOT_stimuli/rescaled_final/0560_fw.mp4	0.0	421.11389088630676	
70	288.37627506256104	movie	1		247	68.0	2.5	/experiments/knapen_AOT/AOT_stimuli/rescaled_final/0560_fw.mp4	0.0	421.12191891670227	2.508729934692383
70	289.96890807151794	pulse	1	t		68.0	2.5	/experiments/knapen_AOT/AOT_stimuli/rescaled_final/0560_fw.mp4	0.0	422.7145519256592	
70	290.8850049972534	fix_post	2		12	68.0	2.5	/experiments/knapen_AOT/AOT_stimuli/rescaled_final/0560_fw.mp4	0.0	423.63064885139465	0.1000070571899414
71	290.98501205444336	fix_pre	0		120	69.0	2.5	blank	1.0	423.7306559085846	1.0001840591430664
71	291.5685770511627	pulse	0	t		69.0	2.5	blank	1.0	424.31422090530396	
71	291.9851961135864	movie	1		300	69.0	2.5	blank	1.0	424.73083996772766	2.5003769397735596
71	293.16892409324646	pulse	1	t		69.0	2.5	blank	1.0	425.9145679473877	
71	294.48557305336	fix_post	2		12	69.0	2.5	blank	1.0	427.2312169075012	0.09997797012329102
72	294.5855510234833	fix_pre	0		120	70.0	2.5	/experiments/knapen_AOT/AOT_stimuli/rescaled_final/0934_fw.mp4	0.0	427.3311948776245	1.0001540184020996
72	294.7691841125488	pulse	0	t		70.0	2.5	/experiments/knapen_AOT/AOT_stimuli/rescaled_final/0934_fw.mp4	0.0	427.51482796669006	
72	295.5857050418854	movie	1		243	70.0	2.5	/experiments/knapen_AOT/AOT_stimuli/rescaled_final/0934_fw.mp4	0.0	428.3313488960266	2.5004239082336426
72	296.36933302879333	pulse	1	t		70.0	2.5	/experiments/knapen_AOT/AOT_stimuli/rescaled_final/0934_fw.mp4	0.0	429.11497688293457	
72	297.9695031642914	pulse	1	t		70.0	2.5	/experiments/knapen_AOT/AOT_stimuli/rescaled_final/0934_fw.mp4	0.0	430.7151470184326	
72	298.086128950119	fix_post	2		12	70.0	2.5	/experiments/knapen_AOT/AOT_stimuli/rescaled_final/0934_fw.mp4	0.0	430.83177280426025	0.0999910831451416
73	298.18612003326416	fix_pre	0		120	71.0	2.5	/experiments/knapen_AOT/AOT_stimuli/rescaled_final/0899_rv.mp4	0.0	430.9317638874054	1.0000889301300049
73	299.18620896339417	movie	1		243	71.0	2.5	/experiments/knapen_AOT/AOT_stimuli/rescaled_final/0899_rv.mp4	0.0	431.9318528175354	2.492043972015381
73	299.57084107398987	pulse	1	t		71.0	2.5	/experiments/knapen_AOT/AOT_stimuli/rescaled_final/0899_rv.mp4	0.0	432.3164849281311	
73	301.16286611557007	pulse	1	t		71.0	2.5	/experiments/knapen_AOT/AOT_stimuli/rescaled_final/0899_rv.mp4	0.0	433.9085099697113	
73	301.67825293540955	fix_post	2		12	71.0	2.5	/experiments/knapen_AOT/AOT_stimuli/rescaled_final/0899_rv.mp4	0.0	434.4238967895508	0.10003209114074707
74	301.7782850265503	fix_pre	0		120	72.0	2.5	/experiments/knapen_AOT/AOT_stimuli/rescaled_final/2068_rv.mp4	0.0	434.5239288806915	1.0001280307769775
74	302.76288294792175	pulse	0	t		72.0	2.5	/experiments/knapen_AOT/AOT_stimuli/rescaled_final/2068_rv.mp4	0.0	435.508526802063	
74	302.77841305732727	movie	1		245	72.0	2.5	/experiments/knapen_AOT/AOT_stimuli/rescaled_final/2068_rv.mp4	0.0	435.5240569114685	2.508716106414795
74	304.3712420463562	pulse	1	t		72.0	2.5	/experiments/knapen_AOT/AOT_stimuli/rescaled_final/2068_rv.mp4	0.0	437.11688590049744	
74	305.28712916374207	fix_post	2		12	72.0	2.5	/experiments/knapen_AOT/AOT_stimuli/rescaled_final/2068_rv.mp4	0.0	438.0327730178833	0.1001138687133789
75	305.38724303245544	fix_pre	0		120	73.0	2.5	/experiments/knapen_AOT/AOT_stimuli/rescaled_final/0429_fw.mp4	0.0	438.1328868865967	1.0000720024108887
75	305.9632091522217	pulse	0	t		73.0	2.5	/experiments/knapen_AOT/AOT_stimuli/rescaled_final/0429_fw.mp4	0.0	438.7088530063629	
75	306.38731503486633	movie	1		244	73.0	2.5	/experiments/knapen_AOT/AOT_stimuli/rescaled_final/0429_fw.mp4	0.0	439.13295888900757	2.500354051589966
75	307.5638749599457	pulse	1	t		73.0	2.5	/experiments/knapen_AOT/AOT_stimuli/rescaled_final/0429_fw.mp4	0.0	440.3095188140869	
75	308.8876690864563	fix_post	2		12	73.0	2.5	/experiments/knapen_AOT/AOT_stimuli/rescaled_final/0429_fw.mp4	0.0	441.63331294059753	0.10000300407409668
76	308.9876720905304	fix_pre	0		120	74.0	2.5	/experiments/knapen_AOT/AOT_stimuli/rescaled_final/1212_rv.mp4	0.0	441.73331594467163	1.0001599788665771
76	309.16301703453064	pulse	0	t		74.0	2.5	/experiments/knapen_AOT/AOT_stimuli/rescaled_final/1212_rv.mp4	0.0	441.9086608886719	
76	309.987832069397	movie	1		243	74.0	2.5	/experiments/knapen_AOT/AOT_stimuli/rescaled_final/1212_rv.mp4	0.0	442.7334759235382	2.5003859996795654
76	310.76314306259155	pulse	1	t		74.0	2.5	/experiments/knapen_AOT/AOT_stimuli/rescaled_final/1212_rv.mp4	0.0	443.5087869167328	
76	312.36342000961304	pulse	1	t		74.0	2.5	/experiments/knapen_AOT/AOT_stimuli/rescaled_final/1212_rv.mp4	0.0	445.1090638637543	
76	312.48821806907654	fix_post	2		12	74.0	2.5	/experiments/knapen_AOT/AOT_stimuli/rescaled_final/1212_rv.mp4	0.0	445.2338619232178	0.10006499290466309
77	312.5882830619812	fix_pre	0		119	75.0	2.5	/experiments/knapen_AOT/AOT_stimuli/rescaled_final/1722_rv.mp4	0.0	445.33392691612244	0.9917840957641602
77	313.58006715774536	movie	1		243	75.0	2.5	/experiments/knapen_AOT/AOT_stimuli/rescaled_final/1722_rv.mp4	0.0	446.3257110118866	2.5003409385681152
77	313.96494913101196	pulse	1	t		75.0	2.5	/experiments/knapen_AOT/AOT_stimuli/rescaled_final/1722_rv.mp4	0.0	446.7105929851532	
77	315.5640239715576	pulse	1	t		75.0	2.5	/experiments/knapen_AOT/AOT_stimuli/rescaled_final/1722_rv.mp4	0.0	448.30966782569885	
77	316.0804080963135	fix_post	2		12	75.0	2.5	/experiments/knapen_AOT/AOT_stimuli/rescaled_final/1722_rv.mp4	0.0	448.8260519504547	0.1000070571899414
78	316.1804151535034	fix_pre	0		119	76.0	2.5	blank	1.0	448.92605900764465	0.9918088912963867
78	317.1642439365387	pulse	0	t		76.0	2.5	blank	1.0	449.90988779067993	
78	317.1722240447998	movie	1		301	76.0	2.5	blank	1.0	449.91786789894104	2.5087459087371826
78	318.76433205604553	pulse	1	t		76.0	2.5	blank	1.0	451.50997591018677	
78	319.680969953537	fix_post	2		12	76.0	2.5	blank	1.0	452.4266138076782	0.10000014305114746
79	319.78097009658813	fix_pre	0		120	77.0	2.5	/experiments/knapen_AOT/AOT_stimuli/rescaled_final/0132_rv.mp4	0.0	452.52661395072937	1.0002050399780273
79	320.36454796791077	pulse	0	t		77.0	2.5	/experiments/knapen_AOT/AOT_stimuli/rescaled_final/0132_rv.mp4	0.0	453.110191822052	
79	320.78117513656616	movie	1		241	77.0	2.5	/experiments/knapen_AOT/AOT_stimuli/rescaled_final/0132_rv.mp4	0.0	453.5268189907074	2.5003509521484375
79	321.9649591445923	pulse	1	t		77.0	2.5	/experiments/knapen_AOT/AOT_stimuli/rescaled_final/0132_rv.mp4	0.0	454.7106029987335	
79	323.2815260887146	fix_post	2		12	77.0	2.5	/experiments/knapen_AOT/AOT_stimuli/rescaled_final/0132_rv.mp4	0.0	456.02716994285583	0.09997892379760742
80	323.3815050125122	fix_pre	0		120	78.0	2.5	/experiments/knapen_AOT/AOT_stimuli/rescaled_final/1792_fw.mp4	0.0	456.12714886665344	1.000175952911377
80	323.5652129650116	pulse	0	t		78.0	2.5	/experiments/knapen_AOT/AOT_stimuli/rescaled_final/1792_fw.mp4	0.0	456.31085681915283	
80	324.3816809654236	movie	1		244	78.0	2.5	/experiments/knapen_AOT/AOT_stimuli/rescaled_final/1792_fw.mp4	0.0	457.1273248195648	2.500333070755005
80	325.16535997390747	pulse	1	t		78.0	2.5	/experiments/knapen_AOT/AOT_stimuli/rescaled_final/1792_fw.mp4	0.0	457.9110038280487	
80	326.7657251358032	pulse	1	t		78.0	2.5	/experiments/knapen_AOT/AOT_stimuli/rescaled_final/1792_fw.mp4	0.0	459.51136898994446	
80	326.8820140361786	fix_post	2		12	78.0	2.5	/experiments/knapen_AOT/AOT_stimuli/rescaled_final/1792_fw.mp4	0.0	459.6276578903198	0.10008096694946289
81	326.98209500312805	fix_pre	0		120	79.0	2.5	/experiments/knapen_AOT/AOT_stimuli/rescaled_final/1287_fw.mp4	0.0	459.7277388572693	1.0001220703125
81	327.98221707344055	movie	1		243	79.0	2.5	/experiments/knapen_AOT/AOT_stimuli/rescaled_final/1287_fw.mp4	0.0	460.7278609275818	2.4920098781585693
81	328.3669879436493	pulse	1	t		79.0	2.5	/experiments/knapen_AOT/AOT_stimuli/rescaled_final/1287_fw.mp4	0.0	461.1126317977905	
81	329.9661159515381	pulse	1	t		79.0	2.5	/experiments/knapen_AOT/AOT_stimuli/rescaled_final/1287_fw.mp4	0.0	462.7117598056793	
81	330.4742269515991	fix_post	2		12	79.0	2.5	/experiments/knapen_AOT/AOT_stimuli/rescaled_final/1287_fw.mp4	0.0	463.21987080574036	0.1000220775604248
82	330.57424902915955	fix_pre	0		120	80.0	2.5	/experiments/knapen_AOT/AOT_stimuli/rescaled_final/1673_fw.mp4	0.0	463.3198928833008	1.0001330375671387
82	331.5663411617279	pulse	0	t		80.0	2.5	/experiments/knapen_AOT/AOT_stimuli/rescaled_final/1673_fw.mp4	0.0	464.31198501586914	
82	331.5743820667267	movie	1		245	80.0	2.5	/experiments/knapen_AOT/AOT_stimuli/rescaled_final/1673_fw.mp4	0.0	464.3200259208679	2.5088179111480713
82	333.16789412498474	pulse	1	t		80.0	2.5	/experiments/knapen_AOT/AOT_stimuli/rescaled_final/1673_fw.mp4	0.0	465.913537979126	
82	334.08319997787476	fix_post	2		12	80.0	2.5	/experiments/knapen_AOT/AOT_stimuli/rescaled_final/1673_fw.mp4	0.0	466.828843832016	0.0999140739440918
83	334.18311405181885	fix_pre	0		120	81.0	2.5	/experiments/knapen_AOT/AOT_stimuli/rescaled_final/0095_rv.mp4	0.0	466.9287579059601	1.000180959701538
83	334.7667889595032	pulse	0	t		81.0	2.5	/experiments/knapen_AOT/AOT_stimuli/rescaled_final/0095_rv.mp4	0.0	467.5124328136444	
83	335.1832950115204	movie	1		244	81.0	2.5	/experiments/knapen_AOT/AOT_stimuli/rescaled_final/0095_rv.mp4	0.0	467.9289388656616	2.5003249645233154
83	336.36709809303284	pulse	1	t		81.0	2.5	/experiments/knapen_AOT/AOT_stimuli/rescaled_final/0095_rv.mp4	0.0	469.1127419471741	
83	337.6836199760437	fix_post	2		12	81.0	2.5	/experiments/knapen_AOT/AOT_stimuli/rescaled_final/0095_rv.mp4	0.0	470.42926383018494	0.1000361442565918
84	337.7836561203003	fix_pre	0		120	82.0	2.5	/experiments/knapen_AOT/AOT_stimuli/rescaled_final/0429_rv.mp4	0.0	470.5292999744415	1.0001649856567383
84	337.9673261642456	pulse	0	t		82.0	2.5	/experiments/knapen_AOT/AOT_stimuli/rescaled_final/0429_rv.mp4	0.0	470.71297001838684	
84	338.78382110595703	movie	1		245	82.0	2.5	/experiments/knapen_AOT/AOT_stimuli/rescaled_final/0429_rv.mp4	0.0	471.52946496009827	2.5003368854522705
84	339.5673930644989	pulse	1	t		82.0	2.5	/experiments/knapen_AOT/AOT_stimuli/rescaled_final/0429_rv.mp4	0.0	472.31303691864014	
84	341.1677510738373	pulse	1	t		82.0	2.5	/experiments/knapen_AOT/AOT_stimuli/rescaled_final/0429_rv.mp4	0.0	473.9133949279785	
84	341.2841579914093	fix_post	2		12	82.0	2.5	/experiments/knapen_AOT/AOT_stimuli/rescaled_final/0429_rv.mp4	0.0	474.02980184555054	0.10001897811889648
85	341.3841769695282	fix_pre	0		120	83.0	2.5	blank	1.0	474.12982082366943	1.000171184539795
85	342.384348154068	movie	1		299	83.0	2.5	blank	1.0	475.12999200820923	2.492029905319214
85	342.76791405677795	pulse	1	t		83.0	2.5	blank	1.0	475.5135579109192	
85	344.3681540489197	pulse	1	t		83.0	2.5	blank	1.0	477.1137979030609	
85	344.8763780593872	fix_post	2		12	83.0	2.5	blank	1.0	477.62202191352844	0.10002708435058594
87	344.9764051437378	stim	0		1716					477.722048997879	14.302238941192627
87	345.9685010910034	pulse	0	t						478.71414494514465	
87	347.5687770843506	pulse	0	t						480.3144209384918	
87	349.1689100265503	pulse	0	t						481.9145538806915	
87	350.76911997795105	pulse	0	t						483.5147638320923	
87	352.3694360256195	pulse	0	t						485.11507987976074	
87	353.96964406967163	pulse	0	t						486.71528792381287	
87	355.56235694885254	pulse	0	t						488.3080008029938	
87	357.16272711753845	pulse	0	t						489.9083709716797	
87	358.76292300224304	pulse	0	t						491.5085668563843	
