trial_nr	onset	event_type	phase	response	nr_frames	movie_index	movie_duration	movie_file	blank	onset_abs	duration
0	0.166595458984375	stim	0		1					21.414095640182495	0.008179664611816406
0	0.16886687278747559	response	0	space						21.416367053985596	
1	0.1747751235961914	stim	0		4747					21.42227530479431	39.57503342628479
1	39.740095138549805	pulse	0	t						60.987595319747925	
1	39.74980854988098	stim	1		1716					60.9973087310791	14.308043241500854
1	41.33147358894348	pulse	1	t						62.5789737701416	
1	42.93139171600342	pulse	1	t						64.17889189720154	
1	44.53165030479431	pulse	1	t						65.77915048599243	
1	46.13201022148132	pulse	1	t						67.37951040267944	
1	47.73216199874878	pulse	1	t						68.9796621799469	
1	49.332372426986694	pulse	1	t						70.57987260818481	
1	50.93256616592407	pulse	1	t						72.18006634712219	
1	52.53286957740784	pulse	1	t						73.78036975860596	
2	54.057851791381836	fix_pre	0		10	0.0	2.5	/experiments/Knapen_AOT/AOT_stimuli/rescaled_final/1960_fw.mp4	0.0	75.30535197257996	0.1000521183013916
2	54.13308620452881	pulse	0	t		0.0	2.5	/experiments/Knapen_AOT/AOT_stimuli/rescaled_final/1960_fw.mp4	0.0	75.38058638572693	
2	54.15790390968323	movie	1		289	0.0	2.5	/experiments/Knapen_AOT/AOT_stimuli/rescaled_final/1960_fw.mp4	0.0	75.40540409088135	2.4920153617858887
2	55.73199152946472	pulse	1	t		0.0	2.5	/experiments/Knapen_AOT/AOT_stimuli/rescaled_final/1960_fw.mp4	0.0	76.97949171066284	
2	56.649919271469116	fix_post	2		12	0.0	2.5	/experiments/Knapen_AOT/AOT_stimuli/rescaled_final/1960_fw.mp4	0.0	77.89741945266724	0.10001182556152344
3	56.74993109703064	fix_pre	0		120	1.0	2.5	/experiments/Knapen_AOT/AOT_stimuli/rescaled_final/0911_fw.mp4	0.0	77.99743127822876	1.0084993839263916
3	57.33364725112915	pulse	0	t		1.0	2.5	/experiments/Knapen_AOT/AOT_stimuli/rescaled_final/0911_fw.mp4	0.0	78.58114743232727	
3	57.75843048095703	movie	1		290	1.0	2.5	/experiments/Knapen_AOT/AOT_stimuli/rescaled_final/0911_fw.mp4	0.0	79.00593066215515	2.4920191764831543
3	58.93206858634949	pulse	1	t		1.0	2.5	/experiments/Knapen_AOT/AOT_stimuli/rescaled_final/0911_fw.mp4	0.0	80.17956876754761	
3	60.250449657440186	fix_post	2		12	1.0	2.5	/experiments/Knapen_AOT/AOT_stimuli/rescaled_final/0911_fw.mp4	0.0	81.4979498386383	0.10001349449157715
4	60.35046315193176	fix_pre	0		120	2.0	2.5	/experiments/Knapen_AOT/AOT_stimuli/rescaled_final/0828_fw.mp4	0.0	81.59796333312988	1.008509635925293
4	60.53409028053284	pulse	0	t		2.0	2.5	/experiments/Knapen_AOT/AOT_stimuli/rescaled_final/0828_fw.mp4	0.0	81.78159046173096	
4	61.358972787857056	movie	1		284	2.0	2.5	/experiments/Knapen_AOT/AOT_stimuli/rescaled_final/0828_fw.mp4	0.0	82.60647296905518	2.492032051086426
4	62.1320481300354	pulse	1	t		2.0	2.5	/experiments/Knapen_AOT/AOT_stimuli/rescaled_final/0828_fw.mp4	0.0	83.37954831123352	
4	63.73300361633301	pulse	1	t		2.0	2.5	/experiments/Knapen_AOT/AOT_stimuli/rescaled_final/0828_fw.mp4	0.0	84.98050379753113	
4	63.85100483894348	fix_post	2		12	2.0	2.5	/experiments/Knapen_AOT/AOT_stimuli/rescaled_final/0828_fw.mp4	0.0	85.0985050201416	0.1000063419342041
5	63.951011180877686	fix_pre	0		120	3.0	2.5	/experiments/Knapen_AOT/AOT_stimuli/rescaled_final/0631_rv.mp4	0.0	85.1985113620758	1.008500099182129
5	64.95951128005981	movie	1		289	3.0	2.5	/experiments/Knapen_AOT/AOT_stimuli/rescaled_final/0631_rv.mp4	0.0	86.20701146125793	2.49202299118042
5	65.33314728736877	pulse	1	t		3.0	2.5	/experiments/Knapen_AOT/AOT_stimuli/rescaled_final/0631_rv.mp4	0.0	86.5806474685669	
5	66.93277096748352	pulse	1	t		3.0	2.5	/experiments/Knapen_AOT/AOT_stimuli/rescaled_final/0631_rv.mp4	0.0	88.18027114868164	
5	67.45153427124023	fix_post	2		12	3.0	2.5	/experiments/Knapen_AOT/AOT_stimuli/rescaled_final/0631_rv.mp4	0.0	88.69903445243835	0.10001420974731445
6	67.55154848098755	fix_pre	0		119	4.0	2.5	/experiments/Knapen_AOT/AOT_stimuli/rescaled_final/1991_rv.mp4	0.0	88.79904866218567	1.0001740455627441
6	68.53536915779114	pulse	0	t		4.0	2.5	/experiments/Knapen_AOT/AOT_stimuli/rescaled_final/1991_rv.mp4	0.0	89.78286933898926	
6	68.5517225265503	movie	1		290	4.0	2.5	/experiments/Knapen_AOT/AOT_stimuli/rescaled_final/1991_rv.mp4	0.0	89.79922270774841	2.5003769397735596
6	70.13499283790588	pulse	1	t		4.0	2.5	/experiments/Knapen_AOT/AOT_stimuli/rescaled_final/1991_rv.mp4	0.0	91.382493019104	
6	71.05209946632385	fix_post	2		12	4.0	2.5	/experiments/Knapen_AOT/AOT_stimuli/rescaled_final/1991_rv.mp4	0.0	92.29959964752197	0.10005712509155273
7	71.1521565914154	fix_pre	0		120	5.0	2.5	blank	1.0	92.39965677261353	1.0000865459442139
7	71.73577165603638	pulse	0	t		5.0	2.5	blank	1.0	92.9832718372345	
7	72.15224313735962	movie	1		300	5.0	2.5	blank	1.0	93.39974331855774	2.5003912448883057
7	73.33594298362732	pulse	1	t		5.0	2.5	blank	1.0	94.58344316482544	
7	74.65263438224792	fix_post	2		12	5.0	2.5	blank	1.0	95.90013456344604	0.10000252723693848
8	74.75263690948486	fix_pre	0		120	6.0	2.5	/experiments/Knapen_AOT/AOT_stimuli/rescaled_final/0777_rv.mp4	0.0	96.00013709068298	1.0085041522979736
8	74.9362940788269	pulse	0	t		6.0	2.5	/experiments/Knapen_AOT/AOT_stimuli/rescaled_final/0777_rv.mp4	0.0	96.18379426002502	
8	75.76114106178284	movie	1		290	6.0	2.5	/experiments/Knapen_AOT/AOT_stimuli/rescaled_final/0777_rv.mp4	0.0	97.00864124298096	2.492058277130127
8	76.53434443473816	pulse	1	t		6.0	2.5	/experiments/Knapen_AOT/AOT_stimuli/rescaled_final/0777_rv.mp4	0.0	97.78184461593628	
8	78.13462114334106	pulse	1	t		6.0	2.5	/experiments/Knapen_AOT/AOT_stimuli/rescaled_final/0777_rv.mp4	0.0	99.38212132453918	
8	78.25319933891296	fix_post	2		12	6.0	2.5	/experiments/Knapen_AOT/AOT_stimuli/rescaled_final/0777_rv.mp4	0.0	99.50069952011108	0.09998154640197754
9	78.35318088531494	fix_pre	0		120	7.0	2.5	/experiments/Knapen_AOT/AOT_stimuli/rescaled_final/1216_fw.mp4	0.0	99.60068106651306	1.0085060596466064
9	79.36168694496155	movie	1		282	7.0	2.5	/experiments/Knapen_AOT/AOT_stimuli/rescaled_final/1216_fw.mp4	0.0	100.60918712615967	2.492032051086426
9	79.73519206047058	pulse	1	t		7.0	2.5	/experiments/Knapen_AOT/AOT_stimuli/rescaled_final/1216_fw.mp4	0.0	100.9826922416687	
9	81.33516454696655	pulse	1	t		7.0	2.5	/experiments/Knapen_AOT/AOT_stimuli/rescaled_final/1216_fw.mp4	0.0	102.58266472816467	
9	81.85371899604797	fix_post	2		12	7.0	2.5	/experiments/Knapen_AOT/AOT_stimuli/rescaled_final/1216_fw.mp4	0.0	103.1012191772461	0.10000061988830566
10	81.95371961593628	fix_pre	0		119	8.0	2.5	/experiments/Knapen_AOT/AOT_stimuli/rescaled_final/1365_rv.mp4	0.0	103.2012197971344	1.0001943111419678
10	82.93010401725769	pulse	0	t		8.0	2.5	/experiments/Knapen_AOT/AOT_stimuli/rescaled_final/1365_rv.mp4	0.0	104.17760419845581	
10	82.95391392707825	movie	1		277	8.0	2.5	/experiments/Knapen_AOT/AOT_stimuli/rescaled_final/1365_rv.mp4	0.0	104.20141410827637	2.5003206729888916
10	84.53017163276672	pulse	1	t		8.0	2.5	/experiments/Knapen_AOT/AOT_stimuli/rescaled_final/1365_rv.mp4	0.0	105.77767181396484	
10	85.45423460006714	fix_post	2		12	8.0	2.5	/experiments/Knapen_AOT/AOT_stimuli/rescaled_final/1365_rv.mp4	0.0	106.70173478126526	0.10002541542053223
11	85.55426001548767	fix_pre	0		120	9.0	2.5	/experiments/Knapen_AOT/AOT_stimuli/rescaled_final/1709_fw.mp4	0.0	106.80176019668579	1.0085604190826416
11	86.12969136238098	pulse	0	t		9.0	2.5	/experiments/Knapen_AOT/AOT_stimuli/rescaled_final/1709_fw.mp4	0.0	107.3771915435791	
11	86.56282043457031	movie	1		290	9.0	2.5	/experiments/Knapen_AOT/AOT_stimuli/rescaled_final/1709_fw.mp4	0.0	107.81032061576843	2.491962432861328
11	87.72983455657959	pulse	1	t		9.0	2.5	/experiments/Knapen_AOT/AOT_stimuli/rescaled_final/1709_fw.mp4	0.0	108.97733473777771	
11	89.05478286743164	fix_post	2		12	9.0	2.5	/experiments/Knapen_AOT/AOT_stimuli/rescaled_final/1709_fw.mp4	0.0	110.30228304862976	0.10004210472106934
12	89.15482497215271	fix_pre	0		120	10.0	2.5	/experiments/Knapen_AOT/AOT_stimuli/rescaled_final/0098_rv.mp4	0.0	110.40232515335083	1.0084950923919678
12	89.33009243011475	pulse	0	t		10.0	2.5	/experiments/Knapen_AOT/AOT_stimuli/rescaled_final/0098_rv.mp4	0.0	110.57759261131287	
12	90.16332006454468	movie	1		282	10.0	2.5	/experiments/Knapen_AOT/AOT_stimuli/rescaled_final/0098_rv.mp4	0.0	111.4108202457428	2.492001533508301
12	90.93035507202148	pulse	1	t		10.0	2.5	/experiments/Knapen_AOT/AOT_stimuli/rescaled_final/0098_rv.mp4	0.0	112.1778552532196	
12	92.53089165687561	pulse	1	t		10.0	2.5	/experiments/Knapen_AOT/AOT_stimuli/rescaled_final/0098_rv.mp4	0.0	113.77839183807373	
12	92.65532159805298	fix_post	2		12	10.0	2.5	/experiments/Knapen_AOT/AOT_stimuli/rescaled_final/0098_rv.mp4	0.0	113.9028217792511	0.10001349449157715
13	92.75533509254456	fix_pre	0		120	11.0	2.5	/experiments/Knapen_AOT/AOT_stimuli/rescaled_final/1216_rv.mp4	0.0	114.00283527374268	1.00850510597229
13	93.76384019851685	movie	1		288	11.0	2.5	/experiments/Knapen_AOT/AOT_stimuli/rescaled_final/1216_rv.mp4	0.0	115.01134037971497	2.4921813011169434
13	94.13079833984375	pulse	1	t		11.0	2.5	/experiments/Knapen_AOT/AOT_stimuli/rescaled_final/1216_rv.mp4	0.0	115.37829852104187	
13	95.73099732398987	pulse	1	t		11.0	2.5	/experiments/Knapen_AOT/AOT_stimuli/rescaled_final/1216_rv.mp4	0.0	116.97849750518799	
13	96.25602149963379	fix_post	2		12	11.0	2.5	/experiments/Knapen_AOT/AOT_stimuli/rescaled_final/1216_rv.mp4	0.0	117.50352168083191	0.0999150276184082
14	96.3559365272522	fix_pre	0		118	12.0	2.5	/experiments/Knapen_AOT/AOT_stimuli/rescaled_final/1998_fw.mp4	0.0	117.60343670845032	0.9917728900909424
14	97.33132576942444	pulse	0	t		12.0	2.5	/experiments/Knapen_AOT/AOT_stimuli/rescaled_final/1998_fw.mp4	0.0	118.57882595062256	
14	97.34770941734314	movie	1		280	12.0	2.5	/experiments/Knapen_AOT/AOT_stimuli/rescaled_final/1998_fw.mp4	0.0	118.59520959854126	2.500368118286133
14	98.9314534664154	pulse	1	t		12.0	2.5	/experiments/Knapen_AOT/AOT_stimuli/rescaled_final/1998_fw.mp4	0.0	120.17895364761353	
14	99.84807753562927	fix_post	2		12	12.0	2.5	/experiments/Knapen_AOT/AOT_stimuli/rescaled_final/1998_fw.mp4	0.0	121.09557771682739	0.10010313987731934
15	99.94818067550659	fix_pre	0		120	13.0	2.5	/experiments/Knapen_AOT/AOT_stimuli/rescaled_final/0251_fw.mp4	0.0	121.19568085670471	1.008387804031372
15	100.53171443939209	pulse	0	t		13.0	2.5	/experiments/Knapen_AOT/AOT_stimuli/rescaled_final/0251_fw.mp4	0.0	121.77921462059021	
15	100.95656847953796	movie	1		275	13.0	2.5	/experiments/Knapen_AOT/AOT_stimuli/rescaled_final/0251_fw.mp4	0.0	122.20406866073608	2.4920551776885986
15	102.12981939315796	pulse	1	t		13.0	2.5	/experiments/Knapen_AOT/AOT_stimuli/rescaled_final/0251_fw.mp4	0.0	123.37731957435608	
15	103.44862365722656	fix_post	2		12	13.0	2.5	/experiments/Knapen_AOT/AOT_stimuli/rescaled_final/0251_fw.mp4	0.0	124.69612383842468	0.10003280639648438
16	103.54865646362305	fix_pre	0		120	14.0	2.5	blank	1.0	124.79615664482117	1.000154733657837
16	103.73221707344055	pulse	0	t		14.0	2.5	blank	1.0	124.97971725463867	
16	104.54881119728088	movie	1		300	14.0	2.5	blank	1.0	125.796311378479	2.500351905822754
16	105.33244967460632	pulse	1	t		14.0	2.5	blank	1.0	126.57994985580444	
16	106.93268418312073	pulse	1	t		14.0	2.5	blank	1.0	128.18018436431885	
16	107.04916310310364	fix_post	2		12	14.0	2.5	blank	1.0	128.29666328430176	0.10004568099975586
17	107.1492087841034	fix_pre	0		120	15.0	2.5	/experiments/Knapen_AOT/AOT_stimuli/rescaled_final/1923_rv.mp4	0.0	128.3967089653015	1.008470058441162
17	108.15767884254456	movie	1		281	15.0	2.5	/experiments/Knapen_AOT/AOT_stimuli/rescaled_final/1923_rv.mp4	0.0	129.40517902374268	2.492016077041626
17	108.53248310089111	pulse	1	t		15.0	2.5	/experiments/Knapen_AOT/AOT_stimuli/rescaled_final/1923_rv.mp4	0.0	129.77998328208923	
17	110.13164138793945	pulse	1	t		15.0	2.5	/experiments/Knapen_AOT/AOT_stimuli/rescaled_final/1923_rv.mp4	0.0	131.37914156913757	
17	110.64969491958618	fix_post	2		12	15.0	2.5	/experiments/Knapen_AOT/AOT_stimuli/rescaled_final/1923_rv.mp4	0.0	131.8971951007843	0.10002970695495605
18	110.74972462654114	fix_pre	0		119	16.0	2.5	/experiments/Knapen_AOT/AOT_stimuli/rescaled_final/0708_fw.mp4	0.0	131.99722480773926	1.0001366138458252
18	111.73339343070984	pulse	0	t		16.0	2.5	/experiments/Knapen_AOT/AOT_stimuli/rescaled_final/0708_fw.mp4	0.0	132.98089361190796	
18	111.74986124038696	movie	1		273	16.0	2.5	/experiments/Knapen_AOT/AOT_stimuli/rescaled_final/0708_fw.mp4	0.0	132.99736142158508	2.500415325164795
18	113.33192777633667	pulse	1	t		16.0	2.5	/experiments/Knapen_AOT/AOT_stimuli/rescaled_final/0708_fw.mp4	0.0	134.5794279575348	
18	114.25027656555176	fix_post	2		12	16.0	2.5	/experiments/Knapen_AOT/AOT_stimuli/rescaled_final/0708_fw.mp4	0.0	135.49777674674988	0.10015034675598145
19	114.35042691230774	fix_pre	0		120	17.0	2.5	/experiments/Knapen_AOT/AOT_stimuli/rescaled_final/1932_rv.mp4	0.0	135.59792709350586	1.0083413124084473
19	114.93382978439331	pulse	0	t		17.0	2.5	/experiments/Knapen_AOT/AOT_stimuli/rescaled_final/1932_rv.mp4	0.0	136.18132996559143	
19	115.35876822471619	movie	1		281	17.0	2.5	/experiments/Knapen_AOT/AOT_stimuli/rescaled_final/1932_rv.mp4	0.0	136.6062684059143	2.492138147354126
19	116.53216314315796	pulse	1	t		17.0	2.5	/experiments/Knapen_AOT/AOT_stimuli/rescaled_final/1932_rv.mp4	0.0	137.77966332435608	
19	117.85090637207031	fix_post	2		12	17.0	2.5	/experiments/Knapen_AOT/AOT_stimuli/rescaled_final/1932_rv.mp4	0.0	139.09840655326843	0.0999295711517334
20	117.95083594322205	fix_pre	0		120	18.0	2.5	/experiments/Knapen_AOT/AOT_stimuli/rescaled_final/0657_fw.mp4	0.0	139.19833612442017	1.0084679126739502
20	118.13432788848877	pulse	0	t		18.0	2.5	/experiments/Knapen_AOT/AOT_stimuli/rescaled_final/0657_fw.mp4	0.0	139.3818280696869	
20	118.959303855896	movie	1		282	18.0	2.5	/experiments/Knapen_AOT/AOT_stimuli/rescaled_final/0657_fw.mp4	0.0	140.20680403709412	2.4920120239257812
20	119.73255562782288	pulse	1	t		18.0	2.5	/experiments/Knapen_AOT/AOT_stimuli/rescaled_final/0657_fw.mp4	0.0	140.980055809021	
20	121.33300995826721	pulse	1	t		18.0	2.5	/experiments/Knapen_AOT/AOT_stimuli/rescaled_final/0657_fw.mp4	0.0	142.58051013946533	
20	121.45131587982178	fix_post	2		12	18.0	2.5	/experiments/Knapen_AOT/AOT_stimuli/rescaled_final/0657_fw.mp4	0.0	142.6988160610199	0.10001754760742188
21	121.5513334274292	fix_pre	0		120	19.0	2.5	/experiments/Knapen_AOT/AOT_stimuli/rescaled_final/1225_rv.mp4	0.0	142.79883360862732	1.0085105895996094
21	122.55984401702881	movie	1		288	19.0	2.5	/experiments/Knapen_AOT/AOT_stimuli/rescaled_final/1225_rv.mp4	0.0	143.80734419822693	2.492013692855835
21	122.93545341491699	pulse	1	t		19.0	2.5	/experiments/Knapen_AOT/AOT_stimuli/rescaled_final/1225_rv.mp4	0.0	144.1829535961151	
21	124.53324890136719	pulse	1	t		19.0	2.5	/experiments/Knapen_AOT/AOT_stimuli/rescaled_final/1225_rv.mp4	0.0	145.7807490825653	
21	125.05185770988464	fix_post	2		12	19.0	2.5	/experiments/Knapen_AOT/AOT_stimuli/rescaled_final/1225_rv.mp4	0.0	146.29935789108276	0.10002994537353516
22	125.15188765525818	fix_pre	0		119	20.0	2.5	/experiments/Knapen_AOT/AOT_stimuli/rescaled_final/0246_rv.mp4	0.0	146.3993878364563	1.0002727508544922
22	126.13561487197876	pulse	0	t		20.0	2.5	/experiments/Knapen_AOT/AOT_stimuli/rescaled_final/0246_rv.mp4	0.0	147.38311505317688	
22	126.15216040611267	movie	1		272	20.0	2.5	/experiments/Knapen_AOT/AOT_stimuli/rescaled_final/0246_rv.mp4	0.0	147.3996605873108	2.5002520084381104
22	127.73623490333557	pulse	1	t		20.0	2.5	/experiments/Knapen_AOT/AOT_stimuli/rescaled_final/0246_rv.mp4	0.0	148.9837350845337	
22	128.65241241455078	fix_post	2		12	20.0	2.5	/experiments/Knapen_AOT/AOT_stimuli/rescaled_final/0246_rv.mp4	0.0	149.8999125957489	0.09999775886535645
23	128.75241017341614	fix_pre	0		120	21.0	2.5	blank	1.0	149.99991035461426	1.000204086303711
23	129.33621859550476	pulse	0	t		21.0	2.5	blank	1.0	150.58371877670288	
23	129.75261425971985	movie	1		300	21.0	2.5	blank	1.0	151.00011444091797	2.5003223419189453
23	130.93631219863892	pulse	1	t		21.0	2.5	blank	1.0	152.18381237983704	
23	132.2529366016388	fix_post	2		12	21.0	2.5	blank	1.0	153.5004367828369	0.10003328323364258
24	132.35296988487244	fix_pre	0		120	22.0	2.5	/experiments/Knapen_AOT/AOT_stimuli/rescaled_final/0810_fw.mp4	0.0	153.60047006607056	1.0085148811340332
24	132.53658866882324	pulse	0	t		22.0	2.5	/experiments/Knapen_AOT/AOT_stimuli/rescaled_final/0810_fw.mp4	0.0	153.78408885002136	
24	133.36148476600647	movie	1		279	22.0	2.5	/experiments/Knapen_AOT/AOT_stimuli/rescaled_final/0810_fw.mp4	0.0	154.6089849472046	2.4919955730438232
24	134.13632917404175	pulse	1	t		22.0	2.5	/experiments/Knapen_AOT/AOT_stimuli/rescaled_final/0810_fw.mp4	0.0	155.38382935523987	
24	135.7350423336029	pulse	1	t		22.0	2.5	/experiments/Knapen_AOT/AOT_stimuli/rescaled_final/0810_fw.mp4	0.0	156.98254251480103	
24	135.8534803390503	fix_post	2		12	22.0	2.5	/experiments/Knapen_AOT/AOT_stimuli/rescaled_final/0810_fw.mp4	0.0	157.1009805202484	0.10007572174072266
25	135.95355606079102	fix_pre	0		120	23.0	2.5	/experiments/Knapen_AOT/AOT_stimuli/rescaled_final/0631_fw.mp4	0.0	157.20105624198914	1.0084178447723389
25	136.96197390556335	movie	1		277	23.0	2.5	/experiments/Knapen_AOT/AOT_stimuli/rescaled_final/0631_fw.mp4	0.0	158.20947408676147	2.492058515548706
25	137.33600878715515	pulse	1	t		23.0	2.5	/experiments/Knapen_AOT/AOT_stimuli/rescaled_final/0631_fw.mp4	0.0	158.58350896835327	
25	138.9355525970459	pulse	1	t		23.0	2.5	/experiments/Knapen_AOT/AOT_stimuli/rescaled_final/0631_fw.mp4	0.0	160.18305277824402	
25	139.45403242111206	fix_post	2		12	23.0	2.5	/experiments/Knapen_AOT/AOT_stimuli/rescaled_final/0631_fw.mp4	0.0	160.70153260231018	0.10001206398010254
26	139.55404448509216	fix_pre	0		119	24.0	2.5	/experiments/Knapen_AOT/AOT_stimuli/rescaled_final/0969_fw.mp4	0.0	160.80154466629028	1.0001468658447266
26	140.52991318702698	pulse	0	t		24.0	2.5	/experiments/Knapen_AOT/AOT_stimuli/rescaled_final/0969_fw.mp4	0.0	161.7774133682251	
26	140.5541913509369	movie	1		288	24.0	2.5	/experiments/Knapen_AOT/AOT_stimuli/rescaled_final/0969_fw.mp4	0.0	161.801691532135	2.5003788471221924
26	142.12996816635132	pulse	1	t		24.0	2.5	/experiments/Knapen_AOT/AOT_stimuli/rescaled_final/0969_fw.mp4	0.0	163.37746834754944	
26	143.05457019805908	fix_post	2		12	24.0	2.5	/experiments/Knapen_AOT/AOT_stimuli/rescaled_final/0969_fw.mp4	0.0	164.3020703792572	0.09999918937683105
27	143.1545693874359	fix_pre	0		120	25.0	2.5	/experiments/Knapen_AOT/AOT_stimuli/rescaled_final/0664_fw.mp4	0.0	164.40206956863403	1.008497953414917
27	143.73013854026794	pulse	0	t		25.0	2.5	/experiments/Knapen_AOT/AOT_stimuli/rescaled_final/0664_fw.mp4	0.0	164.97763872146606	
27	144.16306734085083	movie	1		283	25.0	2.5	/experiments/Knapen_AOT/AOT_stimuli/rescaled_final/0664_fw.mp4	0.0	165.41056752204895	2.4921040534973145
27	145.33016538619995	pulse	1	t		25.0	2.5	/experiments/Knapen_AOT/AOT_stimuli/rescaled_final/0664_fw.mp4	0.0	166.57766556739807	
27	146.65517139434814	fix_post	2		12	25.0	2.5	/experiments/Knapen_AOT/AOT_stimuli/rescaled_final/0664_fw.mp4	0.0	167.90267157554626	0.10003829002380371
28	146.75520968437195	fix_pre	0		120	26.0	2.5	/experiments/Knapen_AOT/AOT_stimuli/rescaled_final/1707_fw.mp4	0.0	168.00270986557007	1.0083973407745361
28	146.93052458763123	pulse	0	t		26.0	2.5	/experiments/Knapen_AOT/AOT_stimuli/rescaled_final/1707_fw.mp4	0.0	168.17802476882935	
28	147.76360702514648	movie	1		280	26.0	2.5	/experiments/Knapen_AOT/AOT_stimuli/rescaled_final/1707_fw.mp4	0.0	169.0111072063446	2.5003821849823
28	148.53100967407227	pulse	1	t		26.0	2.5	/experiments/Knapen_AOT/AOT_stimuli/rescaled_final/1707_fw.mp4	0.0	169.77850985527039	
28	150.1308605670929	pulse	1	t		26.0	2.5	/experiments/Knapen_AOT/AOT_stimuli/rescaled_final/1707_fw.mp4	0.0	171.37836074829102	
28	150.26398921012878	fix_post	2		11	26.0	2.5	/experiments/Knapen_AOT/AOT_stimuli/rescaled_final/1707_fw.mp4	0.0	171.5114893913269	0.09167075157165527
29	150.35565996170044	fix_pre	0		120	27.0	2.5	/experiments/Knapen_AOT/AOT_stimuli/rescaled_final/1378_fw.mp4	0.0	171.60316014289856	1.0085325241088867
29	151.36419248580933	movie	1		263	27.0	2.5	/experiments/Knapen_AOT/AOT_stimuli/rescaled_final/1378_fw.mp4	0.0	172.61169266700745	2.492011308670044
29	151.72984313964844	pulse	1	t		27.0	2.5	/experiments/Knapen_AOT/AOT_stimuli/rescaled_final/1378_fw.mp4	0.0	172.97734332084656	
29	153.33135414123535	pulse	1	t		27.0	2.5	/experiments/Knapen_AOT/AOT_stimuli/rescaled_final/1378_fw.mp4	0.0	174.57885432243347	
29	153.85620379447937	fix_post	2		12	27.0	2.5	/experiments/Knapen_AOT/AOT_stimuli/rescaled_final/1378_fw.mp4	0.0	175.1037039756775	0.10001182556152344
30	153.9562156200409	fix_pre	0		118	28.0	2.5	blank	1.0	175.203715801239	0.9834582805633545
30	154.93172597885132	pulse	0	t		28.0	2.5	blank	1.0	176.17922616004944	
30	154.93967390060425	movie	1		301	28.0	2.5	blank	1.0	176.18717408180237	2.5088489055633545
30	156.53177165985107	pulse	1	t		28.0	2.5	blank	1.0	177.7792718410492	
30	157.4485228061676	fix_post	2		12	28.0	2.5	blank	1.0	178.69602298736572	0.09992003440856934
31	157.54844284057617	fix_pre	0		120	29.0	2.5	/experiments/Knapen_AOT/AOT_stimuli/rescaled_final/1675_fw.mp4	0.0	178.7959430217743	1.008483648300171
31	158.1320140361786	pulse	0	t		29.0	2.5	/experiments/Knapen_AOT/AOT_stimuli/rescaled_final/1675_fw.mp4	0.0	179.3795142173767	
31	158.55692648887634	movie	1		268	29.0	2.5	/experiments/Knapen_AOT/AOT_stimuli/rescaled_final/1675_fw.mp4	0.0	179.80442667007446	2.4920034408569336
31	159.7303729057312	pulse	1	t		29.0	2.5	/experiments/Knapen_AOT/AOT_stimuli/rescaled_final/1675_fw.mp4	0.0	180.97787308692932	
31	161.04892992973328	fix_post	2		12	29.0	2.5	/experiments/Knapen_AOT/AOT_stimuli/rescaled_final/1675_fw.mp4	0.0	182.2964301109314	0.10004854202270508
32	161.14897847175598	fix_pre	0		120	30.0	2.5	/experiments/Knapen_AOT/AOT_stimuli/rescaled_final/1892_fw.mp4	0.0	182.3964786529541	1.008509874343872
32	161.33251667022705	pulse	0	t		30.0	2.5	/experiments/Knapen_AOT/AOT_stimuli/rescaled_final/1892_fw.mp4	0.0	182.58001685142517	
32	162.15748834609985	movie	1		280	30.0	2.5	/experiments/Knapen_AOT/AOT_stimuli/rescaled_final/1892_fw.mp4	0.0	183.40498852729797	2.4920544624328613
32	162.93072319030762	pulse	1	t		30.0	2.5	/experiments/Knapen_AOT/AOT_stimuli/rescaled_final/1892_fw.mp4	0.0	184.17822337150574	
32	164.53136205673218	pulse	1	t		30.0	2.5	/experiments/Knapen_AOT/AOT_stimuli/rescaled_final/1892_fw.mp4	0.0	185.7788622379303	
32	164.64954280853271	fix_post	2		12	30.0	2.5	/experiments/Knapen_AOT/AOT_stimuli/rescaled_final/1892_fw.mp4	0.0	185.89704298973083	0.09994935989379883
33	164.7494921684265	fix_pre	0		120	31.0	2.5	/experiments/Knapen_AOT/AOT_stimuli/rescaled_final/0437_fw.mp4	0.0	185.99699234962463	1.008483648300171
33	165.75797581672668	movie	1		275	31.0	2.5	/experiments/Knapen_AOT/AOT_stimuli/rescaled_final/0437_fw.mp4	0.0	187.0054759979248	2.492044687271118
33	166.1316888332367	pulse	1	t		31.0	2.5	/experiments/Knapen_AOT/AOT_stimuli/rescaled_final/0437_fw.mp4	0.0	187.37918901443481	
33	167.73158740997314	pulse	1	t		31.0	2.5	/experiments/Knapen_AOT/AOT_stimuli/rescaled_final/0437_fw.mp4	0.0	188.97908759117126	
33	168.2500205039978	fix_post	2		12	31.0	2.5	/experiments/Knapen_AOT/AOT_stimuli/rescaled_final/0437_fw.mp4	0.0	189.49752068519592	0.10001349449157715
34	168.35003399848938	fix_pre	0		119	32.0	2.5	/experiments/Knapen_AOT/AOT_stimuli/rescaled_final/1830_rv.mp4	0.0	189.5975341796875	1.0085737705230713
34	169.33398008346558	pulse	0	t		32.0	2.5	/experiments/Knapen_AOT/AOT_stimuli/rescaled_final/1830_rv.mp4	0.0	190.5814802646637	
34	169.35860776901245	movie	1		283	32.0	2.5	/experiments/Knapen_AOT/AOT_stimuli/rescaled_final/1830_rv.mp4	0.0	190.60610795021057	2.4920222759246826
34	170.9336588382721	pulse	1	t		32.0	2.5	/experiments/Knapen_AOT/AOT_stimuli/rescaled_final/1830_rv.mp4	0.0	192.18115901947021	
34	171.85063004493713	fix_post	2		12	32.0	2.5	/experiments/Knapen_AOT/AOT_stimuli/rescaled_final/1830_rv.mp4	0.0	193.09813022613525	0.09996199607849121
35	171.95059204101562	fix_pre	0		120	33.0	2.5	blank	1.0	193.19809222221375	1.0001366138458252
35	172.53420686721802	pulse	0	t		33.0	2.5	blank	1.0	193.78170704841614	
35	172.95072865486145	movie	1		300	33.0	2.5	blank	1.0	194.19822883605957	2.5003700256347656
35	174.13445854187012	pulse	1	t		33.0	2.5	blank	1.0	195.38195872306824	
35	175.45109868049622	fix_post	2		12	33.0	2.5	blank	1.0	196.69859886169434	0.10007095336914062
36	175.55116963386536	fix_pre	0		120	34.0	2.5	/experiments/Knapen_AOT/AOT_stimuli/rescaled_final/0837_fw.mp4	0.0	196.79866981506348	1.0084505081176758
36	175.73467755317688	pulse	0	t		34.0	2.5	/experiments/Knapen_AOT/AOT_stimuli/rescaled_final/0837_fw.mp4	0.0	196.982177734375	
36	176.55962014198303	movie	1		273	34.0	2.5	/experiments/Knapen_AOT/AOT_stimuli/rescaled_final/0837_fw.mp4	0.0	197.80712032318115	2.4920690059661865
36	177.33298468589783	pulse	1	t		34.0	2.5	/experiments/Knapen_AOT/AOT_stimuli/rescaled_final/0837_fw.mp4	0.0	198.58048486709595	
36	178.93325543403625	pulse	1	t		34.0	2.5	/experiments/Knapen_AOT/AOT_stimuli/rescaled_final/0837_fw.mp4	0.0	200.18075561523438	
36	179.05168914794922	fix_post	2		12	34.0	2.5	/experiments/Knapen_AOT/AOT_stimuli/rescaled_final/0837_fw.mp4	0.0	200.29918932914734	0.10000848770141602
37	179.15169763565063	fix_pre	0		120	35.0	2.5	/experiments/Knapen_AOT/AOT_stimuli/rescaled_final/0062_rv.mp4	0.0	200.39919781684875	1.008556604385376
37	180.160254240036	movie	1		286	35.0	2.5	/experiments/Knapen_AOT/AOT_stimuli/rescaled_final/0062_rv.mp4	0.0	201.40775442123413	2.491934299468994
37	180.53401827812195	pulse	1	t		35.0	2.5	/experiments/Knapen_AOT/AOT_stimuli/rescaled_final/0062_rv.mp4	0.0	201.78151845932007	
37	182.13433289527893	pulse	1	t		35.0	2.5	/experiments/Knapen_AOT/AOT_stimuli/rescaled_final/0062_rv.mp4	0.0	203.38183307647705	
37	182.652188539505	fix_post	2		12	35.0	2.5	/experiments/Knapen_AOT/AOT_stimuli/rescaled_final/0062_rv.mp4	0.0	203.89968872070312	0.10024404525756836
38	182.75243258476257	fix_pre	0		119	36.0	2.5	/experiments/Knapen_AOT/AOT_stimuli/rescaled_final/0924_fw.mp4	0.0	203.9999327659607	1.0000364780426025
38	183.7359960079193	pulse	0	t		36.0	2.5	/experiments/Knapen_AOT/AOT_stimuli/rescaled_final/0924_fw.mp4	0.0	204.98349618911743	
38	183.75246906280518	movie	1		283	36.0	2.5	/experiments/Knapen_AOT/AOT_stimuli/rescaled_final/0924_fw.mp4	0.0	204.9999692440033	2.5003037452697754
38	185.33503699302673	pulse	1	t		36.0	2.5	/experiments/Knapen_AOT/AOT_stimuli/rescaled_final/0924_fw.mp4	0.0	206.58253717422485	
38	186.25277280807495	fix_post	2		12	36.0	2.5	/experiments/Knapen_AOT/AOT_stimuli/rescaled_final/0924_fw.mp4	0.0	207.50027298927307	0.10001730918884277
39	186.3527901172638	fix_pre	0		120	37.0	2.5	/experiments/Knapen_AOT/AOT_stimuli/rescaled_final/1886_rv.mp4	0.0	207.6002902984619	1.00844407081604
39	186.93639731407166	pulse	0	t		37.0	2.5	/experiments/Knapen_AOT/AOT_stimuli/rescaled_final/1886_rv.mp4	0.0	208.18389749526978	
39	187.36123418807983	movie	1		281	37.0	2.5	/experiments/Knapen_AOT/AOT_stimuli/rescaled_final/1886_rv.mp4	0.0	208.60873436927795	2.4920289516448975
39	188.53614330291748	pulse	1	t		37.0	2.5	/experiments/Knapen_AOT/AOT_stimuli/rescaled_final/1886_rv.mp4	0.0	209.7836434841156	
39	189.85326313972473	fix_post	2		12	37.0	2.5	/experiments/Knapen_AOT/AOT_stimuli/rescaled_final/1886_rv.mp4	0.0	211.10076332092285	0.10000848770141602
40	189.95327162742615	fix_pre	0		120	38.0	2.5	/experiments/Knapen_AOT/AOT_stimuli/rescaled_final/1860_fw.mp4	0.0	211.20077180862427	1.0085163116455078
40	190.13688039779663	pulse	0	t		38.0	2.5	/experiments/Knapen_AOT/AOT_stimuli/rescaled_final/1860_fw.mp4	0.0	211.38438057899475	
40	190.96178793907166	movie	1		271	38.0	2.5	/experiments/Knapen_AOT/AOT_stimuli/rescaled_final/1860_fw.mp4	0.0	212.20928812026978	2.4921085834503174
40	191.7358627319336	pulse	1	t		38.0	2.5	/experiments/Knapen_AOT/AOT_stimuli/rescaled_final/1860_fw.mp4	0.0	212.9833629131317	
40	193.33575129508972	pulse	1	t		38.0	2.5	/experiments/Knapen_AOT/AOT_stimuli/rescaled_final/1860_fw.mp4	0.0	214.58325147628784	
40	193.45389652252197	fix_post	2		12	38.0	2.5	/experiments/Knapen_AOT/AOT_stimuli/rescaled_final/1860_fw.mp4	0.0	214.7013967037201	0.09996843338012695
41	193.5538649559021	fix_pre	0		120	39.0	2.5	/experiments/Knapen_AOT/AOT_stimuli/rescaled_final/0259_rv.mp4	0.0	214.80136513710022	1.0084404945373535
41	194.56230545043945	movie	1		276	39.0	2.5	/experiments/Knapen_AOT/AOT_stimuli/rescaled_final/0259_rv.mp4	0.0	215.80980563163757	2.492034912109375
41	194.9360957145691	pulse	1	t		39.0	2.5	/experiments/Knapen_AOT/AOT_stimuli/rescaled_final/0259_rv.mp4	0.0	216.1835958957672	
41	196.53579592704773	pulse	1	t		39.0	2.5	/experiments/Knapen_AOT/AOT_stimuli/rescaled_final/0259_rv.mp4	0.0	217.78329610824585	
41	197.05434036254883	fix_post	2		12	39.0	2.5	/experiments/Knapen_AOT/AOT_stimuli/rescaled_final/0259_rv.mp4	0.0	218.30184054374695	0.10003066062927246
42	197.1543710231781	fix_pre	0		119	40.0	2.5	/experiments/Knapen_AOT/AOT_stimuli/rescaled_final/1499_rv.mp4	0.0	218.40187120437622	1.000260591506958
42	198.13121366500854	pulse	0	t		40.0	2.5	/experiments/Knapen_AOT/AOT_stimuli/rescaled_final/1499_rv.mp4	0.0	219.37871384620667	
42	198.15463161468506	movie	1		279	40.0	2.5	/experiments/Knapen_AOT/AOT_stimuli/rescaled_final/1499_rv.mp4	0.0	219.40213179588318	2.5003185272216797
42	199.73688554763794	pulse	1	t		40.0	2.5	/experiments/Knapen_AOT/AOT_stimuli/rescaled_final/1499_rv.mp4	0.0	220.98438572883606	
42	200.65495014190674	fix_post	2		12	40.0	2.5	/experiments/Knapen_AOT/AOT_stimuli/rescaled_final/1499_rv.mp4	0.0	221.90245032310486	0.09998416900634766
43	200.7549343109131	fix_pre	0		120	41.0	2.5	blank	1.0	222.0024344921112	1.0001087188720703
43	201.33044171333313	pulse	0	t		41.0	2.5	blank	1.0	222.57794189453125	
43	201.75504302978516	movie	1		300	41.0	2.5	blank	1.0	223.00254321098328	2.5003697872161865
43	202.93043565750122	pulse	1	t		41.0	2.5	blank	1.0	224.17793583869934	
43	204.25541281700134	fix_post	2		12	41.0	2.5	blank	1.0	225.50291299819946	0.10002875328063965
44	204.35544157028198	fix_pre	0		120	42.0	2.5	/experiments/Knapen_AOT/AOT_stimuli/rescaled_final/0911_fw.mp4	0.0	225.6029417514801	1.0084996223449707
44	204.5307457447052	pulse	0	t		42.0	2.5	/experiments/Knapen_AOT/AOT_stimuli/rescaled_final/0911_fw.mp4	0.0	225.77824592590332	
44	205.36394119262695	movie	1		283	42.0	2.5	/experiments/Knapen_AOT/AOT_stimuli/rescaled_final/0911_fw.mp4	0.0	226.61144137382507	2.4920241832733154
44	206.1309163570404	pulse	1	t		42.0	2.5	/experiments/Knapen_AOT/AOT_stimuli/rescaled_final/0911_fw.mp4	0.0	227.37841653823853	
44	207.7293426990509	pulse	1	t		42.0	2.5	/experiments/Knapen_AOT/AOT_stimuli/rescaled_final/0911_fw.mp4	0.0	228.97684288024902	
44	207.85596537590027	fix_post	2		12	42.0	2.5	/experiments/Knapen_AOT/AOT_stimuli/rescaled_final/0911_fw.mp4	0.0	229.1034655570984	0.10006093978881836
45	207.9560263156891	fix_pre	0		120	43.0	2.5	/experiments/Knapen_AOT/AOT_stimuli/rescaled_final/0828_rv.mp4	0.0	229.2035264968872	1.0084865093231201
45	208.9645128250122	movie	1		273	43.0	2.5	/experiments/Knapen_AOT/AOT_stimuli/rescaled_final/0828_rv.mp4	0.0	230.21201300621033	2.491987943649292
45	209.32947278022766	pulse	1	t		43.0	2.5	/experiments/Knapen_AOT/AOT_stimuli/rescaled_final/0828_rv.mp4	0.0	230.57697296142578	
45	210.93119144439697	pulse	1	t		43.0	2.5	/experiments/Knapen_AOT/AOT_stimuli/rescaled_final/0828_rv.mp4	0.0	232.1786916255951	
45	211.4565007686615	fix_post	2		12	43.0	2.5	/experiments/Knapen_AOT/AOT_stimuli/rescaled_final/0828_rv.mp4	0.0	232.70400094985962	0.10001611709594727
46	211.55651688575745	fix_pre	0		118	44.0	2.5	/experiments/Knapen_AOT/AOT_stimuli/rescaled_final/0894_rv.mp4	0.0	232.80401706695557	0.9918653964996338
46	212.53196835517883	pulse	0	t		44.0	2.5	/experiments/Knapen_AOT/AOT_stimuli/rescaled_final/0894_rv.mp4	0.0	233.77946853637695	
46	212.54838228225708	movie	1		274	44.0	2.5	/experiments/Knapen_AOT/AOT_stimuli/rescaled_final/0894_rv.mp4	0.0	233.7958824634552	2.5003247261047363
46	214.13102412223816	pulse	1	t		44.0	2.5	/experiments/Knapen_AOT/AOT_stimuli/rescaled_final/0894_rv.mp4	0.0	235.37852430343628	
46	215.04870700836182	fix_post	2		12	44.0	2.5	/experiments/Knapen_AOT/AOT_stimuli/rescaled_final/0894_rv.mp4	0.0	236.29620718955994	0.10001373291015625
47	215.14872074127197	fix_pre	0		120	45.0	2.5	/experiments/Knapen_AOT/AOT_stimuli/rescaled_final/0139_fw.mp4	0.0	236.3962209224701	1.0085222721099854
47	215.73239922523499	pulse	0	t		45.0	2.5	/experiments/Knapen_AOT/AOT_stimuli/rescaled_final/0139_fw.mp4	0.0	236.9798994064331	
47	216.15724301338196	movie	1		274	45.0	2.5	/experiments/Knapen_AOT/AOT_stimuli/rescaled_final/0139_fw.mp4	0.0	237.40474319458008	2.51708722114563
47	217.3306622505188	pulse	1	t		45.0	2.5	/experiments/Knapen_AOT/AOT_stimuli/rescaled_final/0139_fw.mp4	0.0	238.57816243171692	
47	218.6743302345276	fix_post	2		9	45.0	2.5	/experiments/Knapen_AOT/AOT_stimuli/rescaled_final/0139_fw.mp4	0.0	239.9218304157257	0.07494664192199707
48	218.74927687644958	fix_pre	0		120	46.0	2.5	/experiments/Knapen_AOT/AOT_stimuli/rescaled_final/0652_fw.mp4	0.0	239.9967770576477	1.0085234642028809
48	218.93286967277527	pulse	0	t		46.0	2.5	/experiments/Knapen_AOT/AOT_stimuli/rescaled_final/0652_fw.mp4	0.0	240.1803698539734	
48	219.75780034065247	movie	1		280	46.0	2.5	/experiments/Knapen_AOT/AOT_stimuli/rescaled_final/0652_fw.mp4	0.0	241.0053005218506	2.492002248764038
48	220.53368282318115	pulse	1	t		46.0	2.5	/experiments/Knapen_AOT/AOT_stimuli/rescaled_final/0652_fw.mp4	0.0	241.78118300437927	
48	222.1317162513733	pulse	1	t		46.0	2.5	/experiments/Knapen_AOT/AOT_stimuli/rescaled_final/0652_fw.mp4	0.0	243.3792164325714	
48	222.2498025894165	fix_post	2		12	46.0	2.5	/experiments/Knapen_AOT/AOT_stimuli/rescaled_final/0652_fw.mp4	0.0	243.49730277061462	0.1000981330871582
49	222.34990072250366	fix_pre	0		120	47.0	2.5	/experiments/Knapen_AOT/AOT_stimuli/rescaled_final/1794_fw.mp4	0.0	243.59740090370178	1.008413553237915
49	223.35831427574158	movie	1		275	47.0	2.5	/experiments/Knapen_AOT/AOT_stimuli/rescaled_final/1794_fw.mp4	0.0	244.6058144569397	2.492021083831787
49	223.7317910194397	pulse	1	t		47.0	2.5	/experiments/Knapen_AOT/AOT_stimuli/rescaled_final/1794_fw.mp4	0.0	244.97929120063782	
49	225.33195996284485	pulse	1	t		47.0	2.5	/experiments/Knapen_AOT/AOT_stimuli/rescaled_final/1794_fw.mp4	0.0	246.57946014404297	
49	225.85033535957336	fix_post	2		12	47.0	2.5	/experiments/Knapen_AOT/AOT_stimuli/rescaled_final/1794_fw.mp4	0.0	247.09783554077148	0.10002660751342773
50	225.9503619670868	fix_pre	0		119	48.0	2.5	/experiments/Knapen_AOT/AOT_stimuli/rescaled_final/1136_rv.mp4	0.0	247.1978621482849	1.0001165866851807
50	226.93403267860413	pulse	0	t		48.0	2.5	/experiments/Knapen_AOT/AOT_stimuli/rescaled_final/1136_rv.mp4	0.0	248.18153285980225	
50	226.95047855377197	movie	1		273	48.0	2.5	/experiments/Knapen_AOT/AOT_stimuli/rescaled_final/1136_rv.mp4	0.0	248.1979787349701	2.5003833770751953
50	228.5337529182434	pulse	1	t		48.0	2.5	/experiments/Knapen_AOT/AOT_stimuli/rescaled_final/1136_rv.mp4	0.0	249.78125309944153	
50	229.45086193084717	fix_post	2		12	48.0	2.5	/experiments/Knapen_AOT/AOT_stimuli/rescaled_final/1136_rv.mp4	0.0	250.6983621120453	0.10004043579101562
51	229.55090236663818	fix_pre	0		120	49.0	2.5	blank	1.0	250.7984025478363	1.0001599788665771
51	230.13451528549194	pulse	0	t		49.0	2.5	blank	1.0	251.38201546669006	
51	230.55106234550476	movie	1		300	49.0	2.5	blank	1.0	251.79856252670288	2.50034761428833
51	231.73482370376587	pulse	1	t		49.0	2.5	blank	1.0	252.982323884964	
51	233.0514099597931	fix_post	2		12	49.0	2.5	blank	1.0	254.2989101409912	0.10002541542053223
52	233.15143537521362	fix_pre	0		120	50.0	2.5	/experiments/Knapen_AOT/AOT_stimuli/rescaled_final/1701_rv.mp4	0.0	254.39893555641174	1.0085084438323975
52	233.33501720428467	pulse	0	t		50.0	2.5	/experiments/Knapen_AOT/AOT_stimuli/rescaled_final/1701_rv.mp4	0.0	254.5825173854828	
52	234.15994381904602	movie	1		279	50.0	2.5	/experiments/Knapen_AOT/AOT_stimuli/rescaled_final/1701_rv.mp4	0.0	255.40744400024414	2.492015838623047
52	234.93408060073853	pulse	1	t		50.0	2.5	/experiments/Knapen_AOT/AOT_stimuli/rescaled_final/1701_rv.mp4	0.0	256.18158078193665	
52	236.53369879722595	pulse	1	t		50.0	2.5	/experiments/Knapen_AOT/AOT_stimuli/rescaled_final/1701_rv.mp4	0.0	257.7811989784241	
52	236.65195965766907	fix_post	2		12	50.0	2.5	/experiments/Knapen_AOT/AOT_stimuli/rescaled_final/1701_rv.mp4	0.0	257.8994598388672	0.10017848014831543
53	236.75213813781738	fix_pre	0		120	51.0	2.5	/experiments/Knapen_AOT/AOT_stimuli/rescaled_final/0928_fw.mp4	0.0	257.9996383190155	1.0083792209625244
53	237.7605173587799	movie	1		279	51.0	2.5	/experiments/Knapen_AOT/AOT_stimuli/rescaled_final/0928_fw.mp4	0.0	259.008017539978	2.492043972015381
53	238.13501000404358	pulse	1	t		51.0	2.5	/experiments/Knapen_AOT/AOT_stimuli/rescaled_final/0928_fw.mp4	0.0	259.3825101852417	
53	239.73391032218933	pulse	1	t		51.0	2.5	/experiments/Knapen_AOT/AOT_stimuli/rescaled_final/0928_fw.mp4	0.0	260.98141050338745	
53	240.2525613307953	fix_post	2		12	51.0	2.5	/experiments/Knapen_AOT/AOT_stimuli/rescaled_final/0928_fw.mp4	0.0	261.5000615119934	0.09995555877685547
54	240.35251688957214	fix_pre	0		119	52.0	2.5	/experiments/Knapen_AOT/AOT_stimuli/rescaled_final/0252_rv.mp4	0.0	261.60001707077026	1.00016188621521
54	241.3363208770752	pulse	0	t		52.0	2.5	/experiments/Knapen_AOT/AOT_stimuli/rescaled_final/0252_rv.mp4	0.0	262.5838210582733	
54	241.35267877578735	movie	1		283	52.0	2.5	/experiments/Knapen_AOT/AOT_stimuli/rescaled_final/0252_rv.mp4	0.0	262.6001789569855	2.5003561973571777
54	242.93504357337952	pulse	1	t		52.0	2.5	/experiments/Knapen_AOT/AOT_stimuli/rescaled_final/0252_rv.mp4	0.0	264.18254375457764	
54	243.85303497314453	fix_post	2		12	52.0	2.5	/experiments/Knapen_AOT/AOT_stimuli/rescaled_final/0252_rv.mp4	0.0	265.10053515434265	0.10002493858337402
55	243.9530599117279	fix_pre	0		120	53.0	2.5	/experiments/Knapen_AOT/AOT_stimuli/rescaled_final/0657_rv.mp4	0.0	265.200560092926	1.0084590911865234
55	244.53681755065918	pulse	0	t		53.0	2.5	/experiments/Knapen_AOT/AOT_stimuli/rescaled_final/0657_rv.mp4	0.0	265.7843177318573	
55	244.96151900291443	movie	1		274	53.0	2.5	/experiments/Knapen_AOT/AOT_stimuli/rescaled_final/0657_rv.mp4	0.0	266.20901918411255	2.4920568466186523
55	246.13542580604553	pulse	1	t		53.0	2.5	/experiments/Knapen_AOT/AOT_stimuli/rescaled_final/0657_rv.mp4	0.0	267.38292598724365	
55	247.45357584953308	fix_post	2		12	53.0	2.5	/experiments/Knapen_AOT/AOT_stimuli/rescaled_final/0657_rv.mp4	0.0	268.7010760307312	0.10001587867736816
56	247.55359172821045	fix_pre	0		120	54.0	2.5	/experiments/Knapen_AOT/AOT_stimuli/rescaled_final/0353_rv.mp4	0.0	268.80109190940857	1.008556604385376
56	247.729896068573	pulse	0	t		54.0	2.5	/experiments/Knapen_AOT/AOT_stimuli/rescaled_final/0353_rv.mp4	0.0	268.9773962497711	
56	248.56214833259583	movie	1		272	54.0	2.5	/experiments/Knapen_AOT/AOT_stimuli/rescaled_final/0353_rv.mp4	0.0	269.80964851379395	2.4919915199279785
56	249.33733987808228	pulse	1	t		54.0	2.5	/experiments/Knapen_AOT/AOT_stimuli/rescaled_final/0353_rv.mp4	0.0	270.5848400592804	
56	250.935964345932	pulse	1	t		54.0	2.5	/experiments/Knapen_AOT/AOT_stimuli/rescaled_final/0353_rv.mp4	0.0	272.1834645271301	
56	251.0541398525238	fix_post	2		12	54.0	2.5	/experiments/Knapen_AOT/AOT_stimuli/rescaled_final/0353_rv.mp4	0.0	272.3016400337219	0.10001349449157715
57	251.15415334701538	fix_pre	0		120	55.0	2.5	/experiments/Knapen_AOT/AOT_stimuli/rescaled_final/1564_fw.mp4	0.0	272.4016535282135	1.0085058212280273
57	252.1626591682434	movie	1		268	55.0	2.5	/experiments/Knapen_AOT/AOT_stimuli/rescaled_final/1564_fw.mp4	0.0	273.4101593494415	2.491994619369507
57	252.5298318862915	pulse	1	t		55.0	2.5	/experiments/Knapen_AOT/AOT_stimuli/rescaled_final/1564_fw.mp4	0.0	273.7773320674896	
57	254.12984085083008	pulse	1	t		55.0	2.5	/experiments/Knapen_AOT/AOT_stimuli/rescaled_final/1564_fw.mp4	0.0	275.3773410320282	
57	254.65465378761292	fix_post	2		12	55.0	2.5	/experiments/Knapen_AOT/AOT_stimuli/rescaled_final/1564_fw.mp4	0.0	275.90215396881104	0.10002946853637695
58	254.7546832561493	fix_pre	0		118	56.0	2.5	blank	1.0	276.0021834373474	0.983443021774292
58	255.73024654388428	pulse	0	t		56.0	2.5	blank	1.0	276.9777467250824	
58	255.73812627792358	movie	1		301	56.0	2.5	blank	1.0	276.9856264591217	2.5087783336639404
58	257.33040142059326	pulse	1	t		56.0	2.5	blank	1.0	278.5779016017914	
58	258.2469046115875	fix_post	2		12	56.0	2.5	blank	1.0	279.49440479278564	0.10004687309265137
59	258.3469514846802	fix_pre	0		120	57.0	2.5	/experiments/Knapen_AOT/AOT_stimuli/rescaled_final/0251_rv.mp4	0.0	279.5944516658783	1.008436918258667
59	258.93054699897766	pulse	0	t		57.0	2.5	/experiments/Knapen_AOT/AOT_stimuli/rescaled_final/0251_rv.mp4	0.0	280.1780471801758	
59	259.35538840293884	movie	1		268	57.0	2.5	/experiments/Knapen_AOT/AOT_stimuli/rescaled_final/0251_rv.mp4	0.0	280.60288858413696	2.4920289516448975
59	260.53095293045044	pulse	1	t		57.0	2.5	/experiments/Knapen_AOT/AOT_stimuli/rescaled_final/0251_rv.mp4	0.0	281.77845311164856	
59	261.84741735458374	fix_post	2		12	57.0	2.5	/experiments/Knapen_AOT/AOT_stimuli/rescaled_final/0251_rv.mp4	0.0	283.09491753578186	0.1000053882598877
60	261.9474227428436	fix_pre	0		120	58.0	2.5	/experiments/Knapen_AOT/AOT_stimuli/rescaled_final/1554_fw.mp4	0.0	283.19492292404175	1.008516788482666
60	262.13097047805786	pulse	0	t		58.0	2.5	/experiments/Knapen_AOT/AOT_stimuli/rescaled_final/1554_fw.mp4	0.0	283.378470659256	
60	262.9559395313263	movie	1		271	58.0	2.5	/experiments/Knapen_AOT/AOT_stimuli/rescaled_final/1554_fw.mp4	0.0	284.2034397125244	2.492016077041626
60	263.731281042099	pulse	1	t		58.0	2.5	/experiments/Knapen_AOT/AOT_stimuli/rescaled_final/1554_fw.mp4	0.0	284.9787812232971	
60	265.3314459323883	pulse	1	t		58.0	2.5	/experiments/Knapen_AOT/AOT_stimuli/rescaled_final/1554_fw.mp4	0.0	286.5789461135864	
60	265.4479556083679	fix_post	2		12	58.0	2.5	/experiments/Knapen_AOT/AOT_stimuli/rescaled_final/1554_fw.mp4	0.0	286.69545578956604	0.10000944137573242
61	265.54796504974365	fix_pre	0		120	59.0	2.5	/experiments/Knapen_AOT/AOT_stimuli/rescaled_final/1378_fw.mp4	0.0	286.7954652309418	1.008500576019287
61	266.55646562576294	movie	1		279	59.0	2.5	/experiments/Knapen_AOT/AOT_stimuli/rescaled_final/1378_fw.mp4	0.0	287.80396580696106	2.4921131134033203
61	266.93114018440247	pulse	1	t		59.0	2.5	/experiments/Knapen_AOT/AOT_stimuli/rescaled_final/1378_fw.mp4	0.0	288.1786403656006	
61	268.530136346817	pulse	1	t		59.0	2.5	/experiments/Knapen_AOT/AOT_stimuli/rescaled_final/1378_fw.mp4	0.0	289.77763652801514	
61	269.04857873916626	fix_post	2		12	59.0	2.5	/experiments/Knapen_AOT/AOT_stimuli/rescaled_final/1378_fw.mp4	0.0	290.2960789203644	0.09993147850036621
62	269.1485102176666	fix_pre	0		119	60.0	2.5	/experiments/Knapen_AOT/AOT_stimuli/rescaled_final/0684_rv.mp4	0.0	290.39601039886475	1.0001535415649414
62	270.13222908973694	pulse	0	t		60.0	2.5	/experiments/Knapen_AOT/AOT_stimuli/rescaled_final/0684_rv.mp4	0.0	291.37972927093506	
62	270.14866375923157	movie	1		280	60.0	2.5	/experiments/Knapen_AOT/AOT_stimuli/rescaled_final/0684_rv.mp4	0.0	291.3961639404297	2.500370979309082
62	271.7313163280487	pulse	1	t		60.0	2.5	/experiments/Knapen_AOT/AOT_stimuli/rescaled_final/0684_rv.mp4	0.0	292.9788165092468	
62	272.64903473854065	fix_post	2		12	60.0	2.5	/experiments/Knapen_AOT/AOT_stimuli/rescaled_final/0684_rv.mp4	0.0	293.89653491973877	0.10001540184020996
63	272.74905014038086	fix_pre	0		120	61.0	2.5	blank	1.0	293.996550321579	1.000244379043579
63	273.3328540325165	pulse	0	t		61.0	2.5	blank	1.0	294.5803542137146	
63	273.74929451942444	movie	1		300	61.0	2.5	blank	1.0	294.99679470062256	2.5002806186676025
63	274.9329342842102	pulse	1	t		61.0	2.5	blank	1.0	296.1804344654083	
63	276.24957513809204	fix_post	2		12	61.0	2.5	blank	1.0	297.49707531929016	0.10000872611999512
64	276.34958386421204	fix_pre	0		120	62.0	2.5	/experiments/Knapen_AOT/AOT_stimuli/rescaled_final/1971_rv.mp4	0.0	297.59708404541016	1.0084969997406006
64	276.5331542491913	pulse	0	t		62.0	2.5	/experiments/Knapen_AOT/AOT_stimuli/rescaled_final/1971_rv.mp4	0.0	297.7806544303894	
64	277.35808086395264	movie	1		278	62.0	2.5	/experiments/Knapen_AOT/AOT_stimuli/rescaled_final/1971_rv.mp4	0.0	298.60558104515076	2.492058277130127
64	278.13223242759705	pulse	1	t		62.0	2.5	/experiments/Knapen_AOT/AOT_stimuli/rescaled_final/1971_rv.mp4	0.0	299.37973260879517	
64	279.7316472530365	pulse	1	t		62.0	2.5	/experiments/Knapen_AOT/AOT_stimuli/rescaled_final/1971_rv.mp4	0.0	300.9791474342346	
64	279.85013914108276	fix_post	2		12	62.0	2.5	/experiments/Knapen_AOT/AOT_stimuli/rescaled_final/1971_rv.mp4	0.0	301.0976393222809	0.10002493858337402
65	279.95016407966614	fix_pre	0		120	63.0	2.5	/experiments/Knapen_AOT/AOT_stimuli/rescaled_final/1960_rv.mp4	0.0	301.19766426086426	1.0084824562072754
65	280.9586465358734	movie	1		272	63.0	2.5	/experiments/Knapen_AOT/AOT_stimuli/rescaled_final/1960_rv.mp4	0.0	302.20614671707153	2.4920198917388916
65	281.3323850631714	pulse	1	t		63.0	2.5	/experiments/Knapen_AOT/AOT_stimuli/rescaled_final/1960_rv.mp4	0.0	302.5798852443695	
65	282.9333212375641	pulse	1	t		63.0	2.5	/experiments/Knapen_AOT/AOT_stimuli/rescaled_final/1960_rv.mp4	0.0	304.1808214187622	
65	283.4506664276123	fix_post	2		12	63.0	2.5	/experiments/Knapen_AOT/AOT_stimuli/rescaled_final/1960_rv.mp4	0.0	304.6981666088104	0.09999918937683105
66	283.55066561698914	fix_pre	0		119	64.0	2.5	/experiments/Knapen_AOT/AOT_stimuli/rescaled_final/1365_fw.mp4	0.0	304.79816579818726	1.0001747608184814
66	284.5343692302704	pulse	0	t		64.0	2.5	/experiments/Knapen_AOT/AOT_stimuli/rescaled_final/1365_fw.mp4	0.0	305.7818694114685	
66	284.5508403778076	movie	1		276	64.0	2.5	/experiments/Knapen_AOT/AOT_stimuli/rescaled_final/1365_fw.mp4	0.0	305.79834055900574	2.500440835952759
66	286.13353204727173	pulse	1	t		64.0	2.5	/experiments/Knapen_AOT/AOT_stimuli/rescaled_final/1365_fw.mp4	0.0	307.38103222846985	
66	287.0512812137604	fix_post	2		12	64.0	2.5	/experiments/Knapen_AOT/AOT_stimuli/rescaled_final/1365_fw.mp4	0.0	308.2987813949585	0.09996724128723145
67	287.1512484550476	fix_pre	0		120	65.0	2.5	/experiments/Knapen_AOT/AOT_stimuli/rescaled_final/0877_fw.mp4	0.0	308.3987486362457	1.008629560470581
67	287.734840631485	pulse	0	t		65.0	2.5	/experiments/Knapen_AOT/AOT_stimuli/rescaled_final/0877_fw.mp4	0.0	308.9823408126831	
67	288.1598780155182	movie	1		263	65.0	2.5	/experiments/Knapen_AOT/AOT_stimuli/rescaled_final/0877_fw.mp4	0.0	309.4073781967163	2.491868495941162
67	289.3332188129425	pulse	1	t		65.0	2.5	/experiments/Knapen_AOT/AOT_stimuli/rescaled_final/0877_fw.mp4	0.0	310.5807189941406	
67	290.65174651145935	fix_post	2		12	65.0	2.5	/experiments/Knapen_AOT/AOT_stimuli/rescaled_final/0877_fw.mp4	0.0	311.89924669265747	0.10000324249267578
68	290.751749753952	fix_pre	0		120	66.0	2.5	/experiments/Knapen_AOT/AOT_stimuli/rescaled_final/1244_rv.mp4	0.0	311.99924993515015	1.0085179805755615
68	290.93531250953674	pulse	0	t		66.0	2.5	/experiments/Knapen_AOT/AOT_stimuli/rescaled_final/1244_rv.mp4	0.0	312.18281269073486	
68	291.7602677345276	movie	1		278	66.0	2.5	/experiments/Knapen_AOT/AOT_stimuli/rescaled_final/1244_rv.mp4	0.0	313.0077679157257	2.492030382156372
68	292.5336754322052	pulse	1	t		66.0	2.5	/experiments/Knapen_AOT/AOT_stimuli/rescaled_final/1244_rv.mp4	0.0	313.7811756134033	
68	294.13397216796875	pulse	1	t		66.0	2.5	/experiments/Knapen_AOT/AOT_stimuli/rescaled_final/1244_rv.mp4	0.0	315.38147234916687	
68	294.25229811668396	fix_post	2		12	66.0	2.5	/experiments/Knapen_AOT/AOT_stimuli/rescaled_final/1244_rv.mp4	0.0	315.4997982978821	0.10000824928283691
69	294.3523063659668	fix_pre	0		120	67.0	2.5	/experiments/Knapen_AOT/AOT_stimuli/rescaled_final/1742_rv.mp4	0.0	315.5998065471649	1.0084600448608398
69	295.36076641082764	movie	1		271	67.0	2.5	/experiments/Knapen_AOT/AOT_stimuli/rescaled_final/1742_rv.mp4	0.0	316.60826659202576	2.492084503173828
69	295.73436737060547	pulse	1	t		67.0	2.5	/experiments/Knapen_AOT/AOT_stimuli/rescaled_final/1742_rv.mp4	0.0	316.9818675518036	
69	297.33429503440857	pulse	1	t		67.0	2.5	/experiments/Knapen_AOT/AOT_stimuli/rescaled_final/1742_rv.mp4	0.0	318.5817952156067	
69	297.85285091400146	fix_post	2		12	67.0	2.5	/experiments/Knapen_AOT/AOT_stimuli/rescaled_final/1742_rv.mp4	0.0	319.1003510951996	0.09999775886535645
70	297.9528486728668	fix_pre	0		119	68.0	2.5	/experiments/Knapen_AOT/AOT_stimuli/rescaled_final/1332_rv.mp4	0.0	319.20034885406494	1.0001749992370605
70	298.93651962280273	pulse	0	t		68.0	2.5	/experiments/Knapen_AOT/AOT_stimuli/rescaled_final/1332_rv.mp4	0.0	320.18401980400085	
70	298.9530236721039	movie	1		281	68.0	2.5	/experiments/Knapen_AOT/AOT_stimuli/rescaled_final/1332_rv.mp4	0.0	320.200523853302	2.500380277633667
70	300.53661155700684	pulse	1	t		68.0	2.5	/experiments/Knapen_AOT/AOT_stimuli/rescaled_final/1332_rv.mp4	0.0	321.78411173820496	
70	301.45340394973755	fix_post	2		12	68.0	2.5	/experiments/Knapen_AOT/AOT_stimuli/rescaled_final/1332_rv.mp4	0.0	322.70090413093567	0.09999752044677734
71	301.5534014701843	fix_pre	0		120	69.0	2.5	/experiments/Knapen_AOT/AOT_stimuli/rescaled_final/1178_fw.mp4	0.0	322.80090165138245	1.008479356765747
71	302.1370530128479	pulse	0	t		69.0	2.5	/experiments/Knapen_AOT/AOT_stimuli/rescaled_final/1178_fw.mp4	0.0	323.384553194046	
71	302.5618808269501	movie	1		275	69.0	2.5	/experiments/Knapen_AOT/AOT_stimuli/rescaled_final/1178_fw.mp4	0.0	323.8093810081482	2.4920175075531006
71	303.735737323761	pulse	1	t		69.0	2.5	/experiments/Knapen_AOT/AOT_stimuli/rescaled_final/1178_fw.mp4	0.0	324.9832375049591	
71	305.0538983345032	fix_post	2		12	69.0	2.5	/experiments/Knapen_AOT/AOT_stimuli/rescaled_final/1178_fw.mp4	0.0	326.3013985157013	0.10000300407409668
72	305.15390133857727	fix_pre	0		120	70.0	2.5	blank	1.0	326.4014015197754	1.0001804828643799
72	305.3374810218811	pulse	0	t		70.0	2.5	blank	1.0	326.5849812030792	
72	306.15408182144165	movie	1		300	70.0	2.5	blank	1.0	327.40158200263977	2.5003583431243896
72	306.9380145072937	pulse	1	t		70.0	2.5	blank	1.0	328.1855146884918	
72	308.53044152259827	pulse	1	t		70.0	2.5	blank	1.0	329.7779417037964	
72	308.65444016456604	fix_post	2		12	70.0	2.5	blank	1.0	329.90194034576416	0.10003185272216797
73	308.7544720172882	fix_pre	0		120	71.0	2.5	/experiments/Knapen_AOT/AOT_stimuli/rescaled_final/1872_rv.mp4	0.0	330.0019721984863	1.0085179805755615
73	309.76298999786377	movie	1		271	71.0	2.5	/experiments/Knapen_AOT/AOT_stimuli/rescaled_final/1872_rv.mp4	0.0	331.0104901790619	2.492006301879883
73	310.1303720474243	pulse	1	t		71.0	2.5	/experiments/Knapen_AOT/AOT_stimuli/rescaled_final/1872_rv.mp4	0.0	331.37787222862244	
73	311.730406999588	pulse	1	t		71.0	2.5	/experiments/Knapen_AOT/AOT_stimuli/rescaled_final/1872_rv.mp4	0.0	332.97790718078613	
73	312.25499629974365	fix_post	2		12	71.0	2.5	/experiments/Knapen_AOT/AOT_stimuli/rescaled_final/1872_rv.mp4	0.0	333.5024964809418	0.1000213623046875
74	312.35501766204834	fix_pre	0		118	72.0	2.5	/experiments/Knapen_AOT/AOT_stimuli/rescaled_final/0606_rv.mp4	0.0	333.60251784324646	0.9918057918548584
74	313.3306448459625	pulse	0	t		72.0	2.5	/experiments/Knapen_AOT/AOT_stimuli/rescaled_final/0606_rv.mp4	0.0	334.57814502716064	
74	313.3468234539032	movie	1		278	72.0	2.5	/experiments/Knapen_AOT/AOT_stimuli/rescaled_final/0606_rv.mp4	0.0	334.5943236351013	2.5003726482391357
74	314.9306640625	pulse	1	t		72.0	2.5	/experiments/Knapen_AOT/AOT_stimuli/rescaled_final/0606_rv.mp4	0.0	336.1781642436981	
74	315.84719610214233	fix_post	2		12	72.0	2.5	/experiments/Knapen_AOT/AOT_stimuli/rescaled_final/0606_rv.mp4	0.0	337.09469628334045	0.10001540184020996
75	315.94721150398254	fix_pre	0		120	73.0	2.5	/experiments/Knapen_AOT/AOT_stimuli/rescaled_final/0225_rv.mp4	0.0	337.19471168518066	1.0085020065307617
75	316.531192779541	pulse	0	t		73.0	2.5	/experiments/Knapen_AOT/AOT_stimuli/rescaled_final/0225_rv.mp4	0.0	337.77869296073914	
75	316.9557135105133	movie	1		287	73.0	2.5	/experiments/Knapen_AOT/AOT_stimuli/rescaled_final/0225_rv.mp4	0.0	338.2032136917114	2.4920153617858887
75	318.13104605674744	pulse	1	t		73.0	2.5	/experiments/Knapen_AOT/AOT_stimuli/rescaled_final/0225_rv.mp4	0.0	339.37854623794556	
75	319.4477288722992	fix_post	2		12	73.0	2.5	/experiments/Knapen_AOT/AOT_stimuli/rescaled_final/0225_rv.mp4	0.0	340.6952290534973	0.10002470016479492
76	319.547753572464	fix_pre	0		120	74.0	2.5	/experiments/Knapen_AOT/AOT_stimuli/rescaled_final/1054_fw.mp4	0.0	340.7952537536621	1.0084929466247559
76	319.7313539981842	pulse	0	t		74.0	2.5	/experiments/Knapen_AOT/AOT_stimuli/rescaled_final/1054_fw.mp4	0.0	340.9788541793823	
76	320.55624651908875	movie	1		272	74.0	2.5	/experiments/Knapen_AOT/AOT_stimuli/rescaled_final/1054_fw.mp4	0.0	341.80374670028687	2.4920434951782227
76	321.331565618515	pulse	1	t		74.0	2.5	/experiments/Knapen_AOT/AOT_stimuli/rescaled_final/1054_fw.mp4	0.0	342.57906579971313	
76	322.9319326877594	pulse	1	t		74.0	2.5	/experiments/Knapen_AOT/AOT_stimuli/rescaled_final/1054_fw.mp4	0.0	344.1794328689575	
76	323.04829001426697	fix_post	2		12	74.0	2.5	/experiments/Knapen_AOT/AOT_stimuli/rescaled_final/1054_fw.mp4	0.0	344.2957901954651	0.09999537467956543
77	323.14828538894653	fix_pre	0		120	75.0	2.5	blank	1.0	344.39578557014465	1.0001485347747803
77	324.1484339237213	movie	1		300	75.0	2.5	blank	1.0	345.39593410491943	2.5003695487976074
77	324.53208351135254	pulse	1	t		75.0	2.5	blank	1.0	345.77958369255066	
77	326.1322696208954	pulse	1	t		75.0	2.5	blank	1.0	347.3797698020935	
77	326.6488034725189	fix_post	2		12	75.0	2.5	blank	1.0	347.89630365371704	0.1001584529876709
78	326.7489619255066	fix_pre	0		119	76.0	2.5	/experiments/Knapen_AOT/AOT_stimuli/rescaled_final/0936_fw.mp4	0.0	347.9964621067047	0.9999954700469971
78	327.7326326370239	pulse	0	t		76.0	2.5	/experiments/Knapen_AOT/AOT_stimuli/rescaled_final/0936_fw.mp4	0.0	348.98013281822205	
78	327.7489573955536	movie	1		267	76.0	2.5	/experiments/Knapen_AOT/AOT_stimuli/rescaled_final/0936_fw.mp4	0.0	348.9964575767517	2.5004019737243652
78	329.3324785232544	pulse	1	t		76.0	2.5	/experiments/Knapen_AOT/AOT_stimuli/rescaled_final/0936_fw.mp4	0.0	350.5799787044525	
78	330.24935936927795	fix_post	2		11	76.0	2.5	/experiments/Knapen_AOT/AOT_stimuli/rescaled_final/0936_fw.mp4	0.0	351.4968595504761	0.1000204086303711
79	330.3493797779083	fix_pre	0		120	77.0	2.5	/experiments/Knapen_AOT/AOT_stimuli/rescaled_final/2032_fw.mp4	0.0	351.59687995910645	1.0085599422454834
79	330.93306493759155	pulse	0	t		77.0	2.5	/experiments/Knapen_AOT/AOT_stimuli/rescaled_final/2032_fw.mp4	0.0	352.1805651187897	
79	331.3579397201538	movie	1		267	77.0	2.5	/experiments/Knapen_AOT/AOT_stimuli/rescaled_final/2032_fw.mp4	0.0	352.60543990135193	2.4919466972351074
79	332.53172421455383	pulse	1	t		77.0	2.5	/experiments/Knapen_AOT/AOT_stimuli/rescaled_final/2032_fw.mp4	0.0	353.77922439575195	
79	333.8498864173889	fix_post	2		12	77.0	2.5	/experiments/Knapen_AOT/AOT_stimuli/rescaled_final/2032_fw.mp4	0.0	355.09738659858704	0.10002446174621582
80	333.94991087913513	fix_pre	0		120	78.0	2.5	/experiments/Knapen_AOT/AOT_stimuli/rescaled_final/1735_fw.mp4	0.0	355.19741106033325	1.0084657669067383
80	334.1334812641144	pulse	0	t		78.0	2.5	/experiments/Knapen_AOT/AOT_stimuli/rescaled_final/1735_fw.mp4	0.0	355.3809814453125	
80	334.95837664604187	movie	1		269	78.0	2.5	/experiments/Knapen_AOT/AOT_stimuli/rescaled_final/1735_fw.mp4	0.0	356.20587682724	2.492051124572754
80	335.7334702014923	pulse	1	t		78.0	2.5	/experiments/Knapen_AOT/AOT_stimuli/rescaled_final/1735_fw.mp4	0.0	356.98097038269043	
80	337.33236837387085	pulse	1	t		78.0	2.5	/experiments/Knapen_AOT/AOT_stimuli/rescaled_final/1735_fw.mp4	0.0	358.57986855506897	
80	337.4504277706146	fix_post	2		12	78.0	2.5	/experiments/Knapen_AOT/AOT_stimuli/rescaled_final/1735_fw.mp4	0.0	358.69792795181274	0.1000223159790039
81	337.5504500865936	fix_pre	0		120	79.0	2.5	/experiments/Knapen_AOT/AOT_stimuli/rescaled_final/0362_fw.mp4	0.0	358.79795026779175	1.008483648300171
81	338.5589337348938	movie	1		273	79.0	2.5	/experiments/Knapen_AOT/AOT_stimuli/rescaled_final/0362_fw.mp4	0.0	359.8064339160919	2.492044687271118
81	338.93297934532166	pulse	1	t		79.0	2.5	/experiments/Knapen_AOT/AOT_stimuli/rescaled_final/0362_fw.mp4	0.0	360.1804795265198	
81	340.53249645233154	pulse	1	t		79.0	2.5	/experiments/Knapen_AOT/AOT_stimuli/rescaled_final/0362_fw.mp4	0.0	361.77999663352966	
81	341.0509784221649	fix_post	2		12	79.0	2.5	/experiments/Knapen_AOT/AOT_stimuli/rescaled_final/0362_fw.mp4	0.0	362.29847860336304	0.10000896453857422
82	341.1509873867035	fix_pre	0		119	80.0	2.5	/experiments/Knapen_AOT/AOT_stimuli/rescaled_final/1717_fw.mp4	0.0	362.3984875679016	1.0085492134094238
82	342.13477635383606	pulse	0	t		80.0	2.5	/experiments/Knapen_AOT/AOT_stimuli/rescaled_final/1717_fw.mp4	0.0	363.3822765350342	
82	342.1595366001129	movie	1		273	80.0	2.5	/experiments/Knapen_AOT/AOT_stimuli/rescaled_final/1717_fw.mp4	0.0	363.40703678131104	2.492088794708252
82	343.7336890697479	pulse	1	t		80.0	2.5	/experiments/Knapen_AOT/AOT_stimuli/rescaled_final/1717_fw.mp4	0.0	364.98118925094604	
82	344.65162539482117	fix_post	2		11	80.0	2.5	/experiments/Knapen_AOT/AOT_stimuli/rescaled_final/1717_fw.mp4	0.0	365.8991255760193	0.09991025924682617
83	344.751535654068	fix_pre	0		120	81.0	2.5	/experiments/Knapen_AOT/AOT_stimuli/rescaled_final/1033_fw.mp4	0.0	365.9990358352661	1.0085277557373047
83	345.3353087902069	pulse	0	t		81.0	2.5	/experiments/Knapen_AOT/AOT_stimuli/rescaled_final/1033_fw.mp4	0.0	366.58280897140503	
83	345.7600634098053	movie	1		264	81.0	2.5	/experiments/Knapen_AOT/AOT_stimuli/rescaled_final/1033_fw.mp4	0.0	367.0075635910034	2.491983652114868
83	346.93528294563293	pulse	1	t		81.0	2.5	/experiments/Knapen_AOT/AOT_stimuli/rescaled_final/1033_fw.mp4	0.0	368.18278312683105	
83	348.25204706192017	fix_post	2		12	81.0	2.5	/experiments/Knapen_AOT/AOT_stimuli/rescaled_final/1033_fw.mp4	0.0	369.4995472431183	0.10001492500305176
84	348.3520619869232	fix_pre	0		120	82.0	2.5	/experiments/Knapen_AOT/AOT_stimuli/rescaled_final/0237_fw.mp4	0.0	369.59956216812134	1.0085182189941406
84	348.53572058677673	pulse	0	t		82.0	2.5	/experiments/Knapen_AOT/AOT_stimuli/rescaled_final/0237_fw.mp4	0.0	369.78322076797485	
84	349.36058020591736	movie	1		260	82.0	2.5	/experiments/Knapen_AOT/AOT_stimuli/rescaled_final/0237_fw.mp4	0.0	370.6080803871155	2.4920284748077393
84	350.1342742443085	pulse	1	t		82.0	2.5	/experiments/Knapen_AOT/AOT_stimuli/rescaled_final/0237_fw.mp4	0.0	371.3817744255066	
84	351.7350378036499	pulse	1	t		82.0	2.5	/experiments/Knapen_AOT/AOT_stimuli/rescaled_final/0237_fw.mp4	0.0	372.982537984848	
84	351.8526086807251	fix_post	2		12	82.0	2.5	/experiments/Knapen_AOT/AOT_stimuli/rescaled_final/0237_fw.mp4	0.0	373.1001088619232	0.10009765625
85	351.9527063369751	fix_pre	0		120	83.0	2.5	blank	1.0	373.2002065181732	1.000049352645874
85	352.952755689621	movie	1		300	83.0	2.5	blank	1.0	374.2002558708191	2.5004119873046875
85	353.33633971214294	pulse	1	t		83.0	2.5	blank	1.0	374.58383989334106	
85	354.93658924102783	pulse	1	t		83.0	2.5	blank	1.0	376.18408942222595	
85	355.45316767692566	fix_post	2		12	83.0	2.5	blank	1.0	376.7006678581238	0.09999728202819824
87	355.55316495895386	stim	0		1716					376.800665140152	14.30213212966919
87	356.53685188293457	pulse	0	t						377.7843520641327	
87	358.13707518577576	pulse	0	t						379.3845753669739	
87	359.73732137680054	pulse	0	t						380.98482155799866	
87	361.3376293182373	pulse	0	t						382.5851294994354	
87	362.93779611587524	pulse	0	t						384.18529629707336	
87	364.5381193161011	pulse	0	t						385.7856194972992	
87	366.1308467388153	pulse	0	t						387.3783469200134	
87	367.7306203842163	pulse	0	t						388.97812056541443	
87	369.3306679725647	pulse	0	t						390.5781681537628	
