trial_nr	onset	event_type	phase	response	nr_frames	movie_index	movie_duration	movie_file	blank	onset_abs	duration
0	0.14936304092407227	stim	0		26					22.418838024139404	0.2171649932861328
0	0.35858917236328125	response	0	space						22.628064155578613	
1	0.3665280342102051	stim	0		4722					22.636003017425537	39.34978413581848
1	39.70610809326172	pulse	0	t						61.97558307647705	
1	39.71631217002869	stim	1		1717					61.98578715324402	14.30830192565918
1	41.30056309700012	pulse	1	t						63.570038080215454	
1	42.900660037994385	pulse	1	t						65.17013502120972	
1	44.500606060028076	pulse	1	t						66.77008104324341	
1	46.100752115249634	pulse	1	t						68.37022709846497	
1	47.708131074905396	pulse	1	t						69.97760605812073	
1	49.30813908576965	pulse	1	t						71.57761406898499	
1	50.908141136169434	pulse	1	t						73.17761611938477	
1	52.5079882144928	pulse	1	t						74.77746319770813	
2	54.024614095687866	fix_pre	0		11	0.0	2.5	/experiments/AOT/AOT_stimuli/rescaled_final/0299_rv.mp4	0.0	76.2940890789032	0.09165310859680176
2	54.10809302330017	pulse	0	t		0.0	2.5	/experiments/AOT/AOT_stimuli/rescaled_final/0299_rv.mp4	0.0	76.3775680065155	
2	54.11626720428467	movie	1		243	0.0	2.5	/experiments/AOT/AOT_stimuli/rescaled_final/0299_rv.mp4	0.0	76.3857421875	2.5082650184631348
2	55.70789909362793	pulse	1	t		0.0	2.5	/experiments/AOT/AOT_stimuli/rescaled_final/0299_rv.mp4	0.0	77.97737407684326	
2	56.6245322227478	fix_post	2		12	0.0	2.5	/experiments/AOT/AOT_stimuli/rescaled_final/0299_rv.mp4	0.0	78.89400720596313	0.10001182556152344
3	56.724544048309326	fix_pre	0		120	1.0	2.5	/experiments/AOT/AOT_stimuli/rescaled_final/1329_fw.mp4	0.0	78.99401903152466	0.9999909400939941
3	57.30074405670166	pulse	0	t		1.0	2.5	/experiments/AOT/AOT_stimuli/rescaled_final/1329_fw.mp4	0.0	79.57021903991699	
3	57.72453498840332	movie	1		245	1.0	2.5	/experiments/AOT/AOT_stimuli/rescaled_final/1329_fw.mp4	0.0	79.99400997161865	2.499772071838379
3	58.90803408622742	pulse	1	t		1.0	2.5	/experiments/AOT/AOT_stimuli/rescaled_final/1329_fw.mp4	0.0	81.17750906944275	
3	60.2243070602417	fix_post	2		12	1.0	2.5	/experiments/AOT/AOT_stimuli/rescaled_final/1329_fw.mp4	0.0	82.49378204345703	0.09999799728393555
4	60.324305057525635	fix_pre	0		120	2.0	2.5	/experiments/AOT/AOT_stimuli/rescaled_final/0310_fw.mp4	0.0	82.59378004074097	1.0000629425048828
4	60.507683992385864	pulse	0	t		2.0	2.5	/experiments/AOT/AOT_stimuli/rescaled_final/0310_fw.mp4	0.0	82.7771589756012	
4	61.32436800003052	movie	1		246	2.0	2.5	/experiments/AOT/AOT_stimuli/rescaled_final/0310_fw.mp4	0.0	83.59384298324585	2.5001630783081055
4	62.10039019584656	pulse	1	t		2.0	2.5	/experiments/AOT/AOT_stimuli/rescaled_final/0310_fw.mp4	0.0	84.36986517906189	
4	63.70657706260681	pulse	1	t		2.0	2.5	/experiments/AOT/AOT_stimuli/rescaled_final/0310_fw.mp4	0.0	85.97605204582214	
4	63.82453107833862	fix_post	2		12	2.0	2.5	/experiments/AOT/AOT_stimuli/rescaled_final/0310_fw.mp4	0.0	86.09400606155396	0.09998106956481934
5	63.92451214790344	fix_pre	0		120	3.0	2.5	/experiments/AOT/AOT_stimuli/rescaled_final/1346_rv.mp4	0.0	86.19398713111877	1.0000488758087158
5	64.92456102371216	movie	1		245	3.0	2.5	/experiments/AOT/AOT_stimuli/rescaled_final/1346_rv.mp4	0.0	87.19403600692749	2.5000109672546387
5	65.30717206001282	pulse	1	t		3.0	2.5	/experiments/AOT/AOT_stimuli/rescaled_final/1346_rv.mp4	0.0	87.57664704322815	
5	66.90810704231262	pulse	1	t		3.0	2.5	/experiments/AOT/AOT_stimuli/rescaled_final/1346_rv.mp4	0.0	89.17758202552795	
5	67.4245719909668	fix_post	2		12	3.0	2.5	/experiments/AOT/AOT_stimuli/rescaled_final/1346_rv.mp4	0.0	89.69404697418213	0.09986305236816406
6	67.52443504333496	fix_pre	0		119	4.0	2.5	/experiments/AOT/AOT_stimuli/rescaled_final/1730_fw.mp4	0.0	89.7939100265503	0.9916861057281494
6	68.5080680847168	pulse	0	t		4.0	2.5	/experiments/AOT/AOT_stimuli/rescaled_final/1730_fw.mp4	0.0	90.77754306793213	
6	68.51612114906311	movie	1		244	4.0	2.5	/experiments/AOT/AOT_stimuli/rescaled_final/1730_fw.mp4	0.0	90.78559613227844	2.508309841156006
6	70.10832214355469	pulse	1	t		4.0	2.5	/experiments/AOT/AOT_stimuli/rescaled_final/1730_fw.mp4	0.0	92.37779712677002	
6	71.02443099021912	fix_post	2		12	4.0	2.5	/experiments/AOT/AOT_stimuli/rescaled_final/1730_fw.mp4	0.0	93.29390597343445	0.09998917579650879
7	71.12442016601562	fix_pre	0		120	5.0	2.5	blank	1.0	93.39389514923096	1.0000360012054443
7	71.70796298980713	pulse	0	t		5.0	2.5	blank	1.0	93.97743797302246	
7	72.12445616722107	movie	1		300	5.0	2.5	blank	1.0	94.3939311504364	2.4996118545532227
7	73.30046916007996	pulse	1	t		5.0	2.5	blank	1.0	95.56994414329529	
7	74.62406802177429	fix_post	2		12	5.0	2.5	blank	1.0	96.89354300498962	0.10039615631103516
8	74.72446417808533	fix_pre	0		120	6.0	2.5	/experiments/AOT/AOT_stimuli/rescaled_final/0728_fw.mp4	0.0	96.99393916130066	0.9995889663696289
8	74.9004180431366	pulse	0	t		6.0	2.5	/experiments/AOT/AOT_stimuli/rescaled_final/0728_fw.mp4	0.0	97.16989302635193	
8	75.72405314445496	movie	1		243	6.0	2.5	/experiments/AOT/AOT_stimuli/rescaled_final/0728_fw.mp4	0.0	97.99352812767029	2.500494956970215
8	76.50116109848022	pulse	1	t		6.0	2.5	/experiments/AOT/AOT_stimuli/rescaled_final/0728_fw.mp4	0.0	98.77063608169556	
8	78.10620617866516	pulse	1	t		6.0	2.5	/experiments/AOT/AOT_stimuli/rescaled_final/0728_fw.mp4	0.0	100.3756811618805	
8	78.22454810142517	fix_post	2		12	6.0	2.5	/experiments/AOT/AOT_stimuli/rescaled_final/0728_fw.mp4	0.0	100.4940230846405	0.09990096092224121
9	78.32444906234741	fix_pre	0		120	7.0	2.5	/experiments/AOT/AOT_stimuli/rescaled_final/0630_rv.mp4	0.0	100.59392404556274	0.9999699592590332
9	79.32441902160645	movie	1		246	7.0	2.5	/experiments/AOT/AOT_stimuli/rescaled_final/0630_rv.mp4	0.0	101.59389400482178	2.499606132507324
9	79.70796799659729	pulse	1	t		7.0	2.5	/experiments/AOT/AOT_stimuli/rescaled_final/0630_rv.mp4	0.0	101.97744297981262	
9	81.30791807174683	pulse	1	t		7.0	2.5	/experiments/AOT/AOT_stimuli/rescaled_final/0630_rv.mp4	0.0	103.57739305496216	
9	81.82402515411377	fix_post	2		12	7.0	2.5	/experiments/AOT/AOT_stimuli/rescaled_final/0630_rv.mp4	0.0	104.0935001373291	0.10041093826293945
10	81.92443609237671	fix_pre	0		119	8.0	2.5	/experiments/AOT/AOT_stimuli/rescaled_final/1949_fw.mp4	0.0	104.19391107559204	0.9916250705718994
10	82.90788221359253	pulse	0	t		8.0	2.5	/experiments/AOT/AOT_stimuli/rescaled_final/1949_fw.mp4	0.0	105.17735719680786	
10	82.91606116294861	movie	1		248	8.0	2.5	/experiments/AOT/AOT_stimuli/rescaled_final/1949_fw.mp4	0.0	105.18553614616394	2.50793194770813
10	84.50738406181335	pulse	1	t		8.0	2.5	/experiments/AOT/AOT_stimuli/rescaled_final/1949_fw.mp4	0.0	106.77685904502869	
10	85.42399311065674	fix_post	2		12	8.0	2.5	/experiments/AOT/AOT_stimuli/rescaled_final/1949_fw.mp4	0.0	107.69346809387207	0.10044097900390625
11	85.52443408966064	fix_pre	0		120	9.0	2.5	/experiments/AOT/AOT_stimuli/rescaled_final/2027_rv.mp4	0.0	107.79390907287598	0.9996011257171631
11	86.10779809951782	pulse	0	t		9.0	2.5	/experiments/AOT/AOT_stimuli/rescaled_final/2027_rv.mp4	0.0	108.37727308273315	
11	86.52403521537781	movie	1		245	9.0	2.5	/experiments/AOT/AOT_stimuli/rescaled_final/2027_rv.mp4	0.0	108.79351019859314	2.4999489784240723
11	87.7079770565033	pulse	1	t		9.0	2.5	/experiments/AOT/AOT_stimuli/rescaled_final/2027_rv.mp4	0.0	109.97745203971863	
11	89.02398419380188	fix_post	2		12	9.0	2.5	/experiments/AOT/AOT_stimuli/rescaled_final/2027_rv.mp4	0.0	111.29345917701721	0.1004018783569336
12	89.12438607215881	fix_pre	0		120	10.0	2.5	/experiments/AOT/AOT_stimuli/rescaled_final/1671_fw.mp4	0.0	111.39386105537415	1.0000391006469727
12	89.3078842163086	pulse	0	t		10.0	2.5	/experiments/AOT/AOT_stimuli/rescaled_final/1671_fw.mp4	0.0	111.57735919952393	
12	90.12442517280579	movie	1		245	10.0	2.5	/experiments/AOT/AOT_stimuli/rescaled_final/1671_fw.mp4	0.0	112.39390015602112	2.499905824661255
12	90.90044403076172	pulse	1	t		10.0	2.5	/experiments/AOT/AOT_stimuli/rescaled_final/1671_fw.mp4	0.0	113.16991901397705	
12	92.5064811706543	pulse	1	t		10.0	2.5	/experiments/AOT/AOT_stimuli/rescaled_final/1671_fw.mp4	0.0	114.77595615386963	
12	92.62433099746704	fix_post	2		12	10.0	2.5	/experiments/AOT/AOT_stimuli/rescaled_final/1671_fw.mp4	0.0	114.89380598068237	0.10003519058227539
13	92.72436618804932	fix_pre	0		120	11.0	2.5	/experiments/AOT/AOT_stimuli/rescaled_final/1776_rv.mp4	0.0	114.99384117126465	0.9995629787445068
13	93.72392916679382	movie	1		243	11.0	2.5	/experiments/AOT/AOT_stimuli/rescaled_final/1776_rv.mp4	0.0	115.99340415000916	2.5003838539123535
13	94.10885810852051	pulse	1	t		11.0	2.5	/experiments/AOT/AOT_stimuli/rescaled_final/1776_rv.mp4	0.0	116.37833309173584	
13	95.70790719985962	pulse	1	t		11.0	2.5	/experiments/AOT/AOT_stimuli/rescaled_final/1776_rv.mp4	0.0	117.97738218307495	
13	96.22431302070618	fix_post	2		12	11.0	2.5	/experiments/AOT/AOT_stimuli/rescaled_final/1776_rv.mp4	0.0	118.49378800392151	0.1000220775604248
14	96.3243350982666	fix_pre	0		119	12.0	2.5	/experiments/AOT/AOT_stimuli/rescaled_final/1014_rv.mp4	0.0	118.59381008148193	0.9916489124298096
14	97.30778121948242	pulse	0	t		12.0	2.5	/experiments/AOT/AOT_stimuli/rescaled_final/1014_rv.mp4	0.0	119.57725620269775	
14	97.31598401069641	movie	1		244	12.0	2.5	/experiments/AOT/AOT_stimuli/rescaled_final/1014_rv.mp4	0.0	119.58545899391174	2.5079410076141357
14	98.90747499465942	pulse	1	t		12.0	2.5	/experiments/AOT/AOT_stimuli/rescaled_final/1014_rv.mp4	0.0	121.17694997787476	
14	99.82392501831055	fix_post	2		12	12.0	2.5	/experiments/AOT/AOT_stimuli/rescaled_final/1014_rv.mp4	0.0	122.09340000152588	0.10046911239624023
15	99.92439413070679	fix_pre	0		120	13.0	2.5	blank	1.0	122.19386911392212	0.9994640350341797
15	100.5079550743103	pulse	0	t		13.0	2.5	blank	1.0	122.77743005752563	
15	100.92385816574097	movie	1		300	13.0	2.5	blank	1.0	123.1933331489563	2.500515937805176
15	102.10791611671448	pulse	1	t		13.0	2.5	blank	1.0	124.37739109992981	
15	103.42437410354614	fix_post	2		12	13.0	2.5	blank	1.0	125.69384908676147	0.09996891021728516
16	103.52434301376343	fix_pre	0		120	14.0	2.5	/experiments/AOT/AOT_stimuli/rescaled_final/2083_rv.mp4	0.0	125.79381799697876	0.9999442100524902
16	103.70776915550232	pulse	0	t		14.0	2.5	/experiments/AOT/AOT_stimuli/rescaled_final/2083_rv.mp4	0.0	125.97724413871765	
16	104.52428722381592	movie	1		243	14.0	2.5	/experiments/AOT/AOT_stimuli/rescaled_final/2083_rv.mp4	0.0	126.79376220703125	2.500011920928955
16	105.3078351020813	pulse	1	t		14.0	2.5	/experiments/AOT/AOT_stimuli/rescaled_final/2083_rv.mp4	0.0	127.57731008529663	
16	106.90640211105347	pulse	1	t		14.0	2.5	/experiments/AOT/AOT_stimuli/rescaled_final/2083_rv.mp4	0.0	129.1758770942688	
16	107.02429914474487	fix_post	2		12	14.0	2.5	/experiments/AOT/AOT_stimuli/rescaled_final/2083_rv.mp4	0.0	129.2937741279602	0.10002899169921875
17	107.12432813644409	fix_pre	0		120	15.0	2.5	/experiments/AOT/AOT_stimuli/rescaled_final/2151_fw.mp4	0.0	129.39380311965942	1.0000619888305664
17	108.12439012527466	movie	1		244	15.0	2.5	/experiments/AOT/AOT_stimuli/rescaled_final/2151_fw.mp4	0.0	130.39386510849	2.4999539852142334
17	108.50737309455872	pulse	1	t		15.0	2.5	/experiments/AOT/AOT_stimuli/rescaled_final/2151_fw.mp4	0.0	130.77684807777405	
17	110.10041308403015	pulse	1	t		15.0	2.5	/experiments/AOT/AOT_stimuli/rescaled_final/2151_fw.mp4	0.0	132.36988806724548	
17	110.62434411048889	fix_post	2		12	15.0	2.5	/experiments/AOT/AOT_stimuli/rescaled_final/2151_fw.mp4	0.0	132.89381909370422	0.09983205795288086
18	110.72417616844177	fix_pre	0		119	16.0	2.5	/experiments/AOT/AOT_stimuli/rescaled_final/1047_fw.mp4	0.0	132.9936511516571	0.9918079376220703
18	111.70784115791321	pulse	0	t		16.0	2.5	/experiments/AOT/AOT_stimuli/rescaled_final/1047_fw.mp4	0.0	133.97731614112854	
18	111.71598410606384	movie	1		244	16.0	2.5	/experiments/AOT/AOT_stimuli/rescaled_final/1047_fw.mp4	0.0	133.98545908927917	2.508465051651001
18	113.3075110912323	pulse	1	t		16.0	2.5	/experiments/AOT/AOT_stimuli/rescaled_final/1047_fw.mp4	0.0	135.57698607444763	
18	114.22444915771484	fix_post	2		12	16.0	2.5	/experiments/AOT/AOT_stimuli/rescaled_final/1047_fw.mp4	0.0	136.49392414093018	0.09982585906982422
19	114.32427501678467	fix_pre	0		120	17.0	2.5	/experiments/AOT/AOT_stimuli/rescaled_final/1897_rv.mp4	0.0	136.59375	0.9996111392974854
19	114.9078061580658	pulse	0	t		17.0	2.5	/experiments/AOT/AOT_stimuli/rescaled_final/1897_rv.mp4	0.0	137.17728114128113	
19	115.32388615608215	movie	1		246	17.0	2.5	/experiments/AOT/AOT_stimuli/rescaled_final/1897_rv.mp4	0.0	137.59336113929749	2.50062894821167
19	116.50739812850952	pulse	1	t		17.0	2.5	/experiments/AOT/AOT_stimuli/rescaled_final/1897_rv.mp4	0.0	138.77687311172485	
19	117.82451510429382	fix_post	2		12	17.0	2.5	/experiments/AOT/AOT_stimuli/rescaled_final/1897_rv.mp4	0.0	140.09399008750916	0.0995490550994873
20	117.92406415939331	fix_pre	0		120	18.0	2.5	/experiments/AOT/AOT_stimuli/rescaled_final/0503_fw.mp4	0.0	140.19353914260864	1.0002639293670654
20	118.10768604278564	pulse	0	t		18.0	2.5	/experiments/AOT/AOT_stimuli/rescaled_final/0503_fw.mp4	0.0	140.37716102600098	
20	118.92432808876038	movie	1		244	18.0	2.5	/experiments/AOT/AOT_stimuli/rescaled_final/0503_fw.mp4	0.0	141.1938030719757	2.4994959831237793
20	119.70776700973511	pulse	1	t		18.0	2.5	/experiments/AOT/AOT_stimuli/rescaled_final/0503_fw.mp4	0.0	141.97724199295044	
20	121.30647921562195	pulse	1	t		18.0	2.5	/experiments/AOT/AOT_stimuli/rescaled_final/0503_fw.mp4	0.0	143.57595419883728	
20	121.42382407188416	fix_post	2		12	18.0	2.5	/experiments/AOT/AOT_stimuli/rescaled_final/0503_fw.mp4	0.0	143.6932990550995	0.1004331111907959
21	121.52425718307495	fix_pre	0		120	19.0	2.5	/experiments/AOT/AOT_stimuli/rescaled_final/0398_fw.mp4	0.0	143.79373216629028	0.9999499320983887
21	122.52420711517334	movie	1		244	19.0	2.5	/experiments/AOT/AOT_stimuli/rescaled_final/0398_fw.mp4	0.0	144.79368209838867	2.5000479221343994
21	122.9072802066803	pulse	1	t		19.0	2.5	/experiments/AOT/AOT_stimuli/rescaled_final/0398_fw.mp4	0.0	145.17675518989563	
21	124.5003731250763	pulse	1	t		19.0	2.5	/experiments/AOT/AOT_stimuli/rescaled_final/0398_fw.mp4	0.0	146.76984810829163	
21	125.02425503730774	fix_post	2		12	19.0	2.5	/experiments/AOT/AOT_stimuli/rescaled_final/0398_fw.mp4	0.0	147.29373002052307	0.09998011589050293
22	125.12423515319824	fix_pre	0		119	20.0	2.5	/experiments/AOT/AOT_stimuli/rescaled_final/0754_fw.mp4	0.0	147.39371013641357	0.9915599822998047
22	126.1076910495758	pulse	0	t		20.0	2.5	/experiments/AOT/AOT_stimuli/rescaled_final/0754_fw.mp4	0.0	148.37716603279114	
22	126.11579513549805	movie	1		245	20.0	2.5	/experiments/AOT/AOT_stimuli/rescaled_final/0754_fw.mp4	0.0	148.38527011871338	2.508430004119873
22	127.7088360786438	pulse	1	t		20.0	2.5	/experiments/AOT/AOT_stimuli/rescaled_final/0754_fw.mp4	0.0	149.97831106185913	
22	128.62422513961792	fix_post	2		12	20.0	2.5	/experiments/AOT/AOT_stimuli/rescaled_final/0754_fw.mp4	0.0	150.89370012283325	0.09995794296264648
23	128.72418308258057	fix_pre	0		120	21.0	2.5	blank	1.0	150.9936580657959	1.0000989437103271
23	129.30777406692505	pulse	0	t		21.0	2.5	blank	1.0	151.57724905014038	
23	129.7242820262909	movie	1		300	21.0	2.5	blank	1.0	151.99375700950623	2.499979019165039
23	130.90764713287354	pulse	1	t		21.0	2.5	blank	1.0	153.17712211608887	
23	132.22426104545593	fix_post	2		12	21.0	2.5	blank	1.0	154.49373602867126	0.09990501403808594
24	132.32416605949402	fix_pre	0		120	22.0	2.5	/experiments/AOT/AOT_stimuli/rescaled_final/0837_fw.mp4	0.0	154.59364104270935	0.9999639987945557
24	132.50769519805908	pulse	0	t		22.0	2.5	/experiments/AOT/AOT_stimuli/rescaled_final/0837_fw.mp4	0.0	154.7771701812744	
24	133.32413005828857	movie	1		243	22.0	2.5	/experiments/AOT/AOT_stimuli/rescaled_final/0837_fw.mp4	0.0	155.5936050415039	2.5000081062316895
24	134.10769414901733	pulse	1	t		22.0	2.5	/experiments/AOT/AOT_stimuli/rescaled_final/0837_fw.mp4	0.0	156.37716913223267	
24	135.70620107650757	pulse	1	t		22.0	2.5	/experiments/AOT/AOT_stimuli/rescaled_final/0837_fw.mp4	0.0	157.9756760597229	
24	135.82413816452026	fix_post	2		12	22.0	2.5	/experiments/AOT/AOT_stimuli/rescaled_final/0837_fw.mp4	0.0	158.0936131477356	0.09997701644897461
25	135.92411518096924	fix_pre	0		120	23.0	2.5	/experiments/AOT/AOT_stimuli/rescaled_final/1846_fw.mp4	0.0	158.19359016418457	1.0000848770141602
25	136.9242000579834	movie	1		244	23.0	2.5	/experiments/AOT/AOT_stimuli/rescaled_final/1846_fw.mp4	0.0	159.19367504119873	2.49991512298584
25	137.30726718902588	pulse	1	t		23.0	2.5	/experiments/AOT/AOT_stimuli/rescaled_final/1846_fw.mp4	0.0	159.5767421722412	
25	138.90763115882874	pulse	1	t		23.0	2.5	/experiments/AOT/AOT_stimuli/rescaled_final/1846_fw.mp4	0.0	161.17710614204407	
25	139.42411518096924	fix_post	2		12	23.0	2.5	/experiments/AOT/AOT_stimuli/rescaled_final/1846_fw.mp4	0.0	161.69359016418457	0.10006880760192871
26	139.52418398857117	fix_pre	0		119	24.0	2.5	/experiments/AOT/AOT_stimuli/rescaled_final/0191_fw.mp4	0.0	161.7936589717865	0.9915931224822998
26	140.50771307945251	pulse	0	t		24.0	2.5	/experiments/AOT/AOT_stimuli/rescaled_final/0191_fw.mp4	0.0	162.77718806266785	
26	140.51577711105347	movie	1		246	24.0	2.5	/experiments/AOT/AOT_stimuli/rescaled_final/0191_fw.mp4	0.0	162.7852520942688	2.5083858966827393
26	142.10788202285767	pulse	1	t		24.0	2.5	/experiments/AOT/AOT_stimuli/rescaled_final/0191_fw.mp4	0.0	164.377357006073	
26	143.0241630077362	fix_post	2		12	24.0	2.5	/experiments/AOT/AOT_stimuli/rescaled_final/0191_fw.mp4	0.0	165.29363799095154	0.10006904602050781
27	143.1242320537567	fix_pre	0		120	25.0	2.5	/experiments/AOT/AOT_stimuli/rescaled_final/0054_rv.mp4	0.0	165.39370703697205	0.9996671676635742
27	143.7076621055603	pulse	0	t		25.0	2.5	/experiments/AOT/AOT_stimuli/rescaled_final/0054_rv.mp4	0.0	165.97713708877563	
27	144.1238992214203	movie	1		243	25.0	2.5	/experiments/AOT/AOT_stimuli/rescaled_final/0054_rv.mp4	0.0	166.39337420463562	2.5001749992370605
27	145.30771803855896	pulse	1	t		25.0	2.5	/experiments/AOT/AOT_stimuli/rescaled_final/0054_rv.mp4	0.0	167.5771930217743	
27	146.62407422065735	fix_post	2		12	25.0	2.5	/experiments/AOT/AOT_stimuli/rescaled_final/0054_rv.mp4	0.0	168.89354920387268	0.10005688667297363
28	146.72413110733032	fix_pre	0		120	26.0	2.5	/experiments/AOT/AOT_stimuli/rescaled_final/1202_rv.mp4	0.0	168.99360609054565	0.9995849132537842
28	146.90762615203857	pulse	0	t		26.0	2.5	/experiments/AOT/AOT_stimuli/rescaled_final/1202_rv.mp4	0.0	169.1771011352539	
28	147.7237160205841	movie	1		244	26.0	2.5	/experiments/AOT/AOT_stimuli/rescaled_final/1202_rv.mp4	0.0	169.99319100379944	2.5005240440368652
28	148.50757122039795	pulse	1	t		26.0	2.5	/experiments/AOT/AOT_stimuli/rescaled_final/1202_rv.mp4	0.0	170.77704620361328	
28	150.10609102249146	pulse	1	t		26.0	2.5	/experiments/AOT/AOT_stimuli/rescaled_final/1202_rv.mp4	0.0	172.3755660057068	
28	150.22424006462097	fix_post	2		12	26.0	2.5	/experiments/AOT/AOT_stimuli/rescaled_final/1202_rv.mp4	0.0	172.4937150478363	0.09988999366760254
29	150.32413005828857	fix_pre	0		120	27.0	2.5	/experiments/AOT/AOT_stimuli/rescaled_final/2173_fw.mp4	0.0	172.5936050415039	1.0000419616699219
29	151.3241720199585	movie	1		246	27.0	2.5	/experiments/AOT/AOT_stimuli/rescaled_final/2173_fw.mp4	0.0	173.59364700317383	2.4999101161956787
29	151.70725107192993	pulse	1	t		27.0	2.5	/experiments/AOT/AOT_stimuli/rescaled_final/2173_fw.mp4	0.0	173.97672605514526	
29	153.3075931072235	pulse	1	t		27.0	2.5	/experiments/AOT/AOT_stimuli/rescaled_final/2173_fw.mp4	0.0	175.57706809043884	
29	153.82408213615417	fix_post	2		12	27.0	2.5	/experiments/AOT/AOT_stimuli/rescaled_final/2173_fw.mp4	0.0	176.0935571193695	0.10001206398010254
30	153.92409420013428	fix_pre	0		119	28.0	2.5	blank	1.0	176.1935691833496	0.9916419982910156
30	154.90758800506592	pulse	0	t		28.0	2.5	blank	1.0	177.17706298828125	
30	154.9157361984253	movie	1		301	28.0	2.5	blank	1.0	177.18521118164062	2.508373975753784
30	156.50765299797058	pulse	1	t		28.0	2.5	blank	1.0	178.7771279811859	
30	157.42411017417908	fix_post	2		12	28.0	2.5	blank	1.0	179.6935851573944	0.09995484352111816
31	157.5240650177002	fix_pre	0		120	29.0	2.5	/experiments/AOT/AOT_stimuli/rescaled_final/0497_rv.mp4	0.0	179.79354000091553	0.9999220371246338
31	158.107568025589	pulse	0	t		29.0	2.5	/experiments/AOT/AOT_stimuli/rescaled_final/0497_rv.mp4	0.0	180.37704300880432	
31	158.52398705482483	movie	1		243	29.0	2.5	/experiments/AOT/AOT_stimuli/rescaled_final/0497_rv.mp4	0.0	180.79346203804016	2.4997060298919678
31	159.70764708518982	pulse	1	t		29.0	2.5	/experiments/AOT/AOT_stimuli/rescaled_final/0497_rv.mp4	0.0	181.97712206840515	
31	161.0236930847168	fix_post	2		12	29.0	2.5	/experiments/AOT/AOT_stimuli/rescaled_final/0497_rv.mp4	0.0	183.29316806793213	0.10033392906188965
32	161.1240270137787	fix_pre	0		120	30.0	2.5	/experiments/AOT/AOT_stimuli/rescaled_final/0513_rv.mp4	0.0	183.39350199699402	1.000028133392334
32	161.3075921535492	pulse	0	t		30.0	2.5	/experiments/AOT/AOT_stimuli/rescaled_final/0513_rv.mp4	0.0	183.57706713676453	
32	162.12405514717102	movie	1		244	30.0	2.5	/experiments/AOT/AOT_stimuli/rescaled_final/0513_rv.mp4	0.0	184.39353013038635	2.4999399185180664
32	162.90770721435547	pulse	1	t		30.0	2.5	/experiments/AOT/AOT_stimuli/rescaled_final/0513_rv.mp4	0.0	185.1771821975708	
32	164.5062291622162	pulse	1	t		30.0	2.5	/experiments/AOT/AOT_stimuli/rescaled_final/0513_rv.mp4	0.0	186.77570414543152	
32	164.6239950656891	fix_post	2		12	30.0	2.5	/experiments/AOT/AOT_stimuli/rescaled_final/0513_rv.mp4	0.0	186.89347004890442	0.09992313385009766
33	164.72391819953918	fix_pre	0		120	31.0	2.5	/experiments/AOT/AOT_stimuli/rescaled_final/2066_rv.mp4	0.0	186.99339318275452	0.9996838569641113
33	165.7236020565033	movie	1		242	31.0	2.5	/experiments/AOT/AOT_stimuli/rescaled_final/2066_rv.mp4	0.0	187.99307703971863	2.4999799728393555
33	166.10703301429749	pulse	1	t		31.0	2.5	/experiments/AOT/AOT_stimuli/rescaled_final/2066_rv.mp4	0.0	188.37650799751282	
33	167.7075710296631	pulse	1	t		31.0	2.5	/experiments/AOT/AOT_stimuli/rescaled_final/2066_rv.mp4	0.0	189.97704601287842	
33	168.22358202934265	fix_post	2		12	31.0	2.5	/experiments/AOT/AOT_stimuli/rescaled_final/2066_rv.mp4	0.0	190.49305701255798	0.10039210319519043
34	168.32397413253784	fix_pre	0		119	32.0	2.5	/experiments/AOT/AOT_stimuli/rescaled_final/2088_fw.mp4	0.0	190.59344911575317	0.991765022277832
34	169.30748105049133	pulse	0	t		32.0	2.5	/experiments/AOT/AOT_stimuli/rescaled_final/2088_fw.mp4	0.0	191.57695603370667	
34	169.31573915481567	movie	1		246	32.0	2.5	/experiments/AOT/AOT_stimuli/rescaled_final/2088_fw.mp4	0.0	191.585214138031	2.507833957672119
34	170.90690422058105	pulse	1	t		32.0	2.5	/experiments/AOT/AOT_stimuli/rescaled_final/2088_fw.mp4	0.0	193.1763792037964	
34	171.8235731124878	fix_post	2		12	32.0	2.5	/experiments/AOT/AOT_stimuli/rescaled_final/2088_fw.mp4	0.0	194.09304809570312	0.10042095184326172
35	171.92399406433105	fix_pre	0		120	33.0	2.5	/experiments/AOT/AOT_stimuli/rescaled_final/0358_fw.mp4	0.0	194.1934690475464	0.999830961227417
35	172.50713801383972	pulse	0	t		33.0	2.5	/experiments/AOT/AOT_stimuli/rescaled_final/0358_fw.mp4	0.0	194.77661299705505	
35	172.92382502555847	movie	1		246	33.0	2.5	/experiments/AOT/AOT_stimuli/rescaled_final/0358_fw.mp4	0.0	195.1933000087738	2.5001730918884277
35	174.1074390411377	pulse	1	t		33.0	2.5	/experiments/AOT/AOT_stimuli/rescaled_final/0358_fw.mp4	0.0	196.37691402435303	
35	175.4239981174469	fix_post	2		12	33.0	2.5	/experiments/AOT/AOT_stimuli/rescaled_final/0358_fw.mp4	0.0	197.69347310066223	0.09950399398803711
36	175.52350211143494	fix_pre	0		120	34.0	2.5	blank	1.0	197.79297709465027	1.000535011291504
36	175.70743799209595	pulse	0	t		34.0	2.5	blank	1.0	197.97691297531128	
36	176.52403712272644	movie	1		300	34.0	2.5	blank	1.0	198.79351210594177	2.4998300075531006
36	177.30751419067383	pulse	1	t		34.0	2.5	blank	1.0	199.57698917388916	
36	178.90743708610535	pulse	1	t		34.0	2.5	blank	1.0	201.17691206932068	
36	179.02386713027954	fix_post	2		12	34.0	2.5	blank	1.0	201.29334211349487	0.10006499290466309
37	179.1239321231842	fix_pre	0		120	35.0	2.5	/experiments/AOT/AOT_stimuli/rescaled_final/1749_fw.mp4	0.0	201.39340710639954	0.999985933303833
37	180.12391805648804	movie	1		244	35.0	2.5	/experiments/AOT/AOT_stimuli/rescaled_final/1749_fw.mp4	0.0	202.39339303970337	2.499596118927002
37	180.5069169998169	pulse	1	t		35.0	2.5	/experiments/AOT/AOT_stimuli/rescaled_final/1749_fw.mp4	0.0	202.77639198303223	
37	182.10732913017273	pulse	1	t		35.0	2.5	/experiments/AOT/AOT_stimuli/rescaled_final/1749_fw.mp4	0.0	204.37680411338806	
37	182.62351417541504	fix_post	2		12	35.0	2.5	/experiments/AOT/AOT_stimuli/rescaled_final/1749_fw.mp4	0.0	204.89298915863037	0.10038590431213379
38	182.72390007972717	fix_pre	0		119	36.0	2.5	/experiments/AOT/AOT_stimuli/rescaled_final/1932_fw.mp4	0.0	204.9933750629425	0.991703987121582
38	183.70746111869812	pulse	0	t		36.0	2.5	/experiments/AOT/AOT_stimuli/rescaled_final/1932_fw.mp4	0.0	205.97693610191345	
38	183.71560406684875	movie	1		247	36.0	2.5	/experiments/AOT/AOT_stimuli/rescaled_final/1932_fw.mp4	0.0	205.9850790500641	2.507946014404297
38	185.30864810943604	pulse	1	t		36.0	2.5	/experiments/AOT/AOT_stimuli/rescaled_final/1932_fw.mp4	0.0	207.57812309265137	
38	186.22355008125305	fix_post	2		12	36.0	2.5	/experiments/AOT/AOT_stimuli/rescaled_final/1932_fw.mp4	0.0	208.49302506446838	0.10036206245422363
39	186.32391214370728	fix_pre	0		120	37.0	2.5	/experiments/AOT/AOT_stimuli/rescaled_final/1263_fw.mp4	0.0	208.5933871269226	0.9999299049377441
39	186.9086902141571	pulse	0	t		37.0	2.5	/experiments/AOT/AOT_stimuli/rescaled_final/1263_fw.mp4	0.0	209.17816519737244	
39	187.32384204864502	movie	1		245	37.0	2.5	/experiments/AOT/AOT_stimuli/rescaled_final/1263_fw.mp4	0.0	209.59331703186035	2.499680995941162
39	188.50741505622864	pulse	1	t		37.0	2.5	/experiments/AOT/AOT_stimuli/rescaled_final/1263_fw.mp4	0.0	210.77689003944397	
39	189.82352304458618	fix_post	2		12	37.0	2.5	/experiments/AOT/AOT_stimuli/rescaled_final/1263_fw.mp4	0.0	212.0929980278015	0.09996294975280762
40	189.923485994339	fix_pre	0		120	38.0	2.5	/experiments/AOT/AOT_stimuli/rescaled_final/0121_rv.mp4	0.0	212.19296097755432	1.0003650188446045
40	190.10732221603394	pulse	0	t		38.0	2.5	/experiments/AOT/AOT_stimuli/rescaled_final/0121_rv.mp4	0.0	212.37679719924927	
40	190.9238510131836	movie	1		244	38.0	2.5	/experiments/AOT/AOT_stimuli/rescaled_final/0121_rv.mp4	0.0	213.19332599639893	2.50004506111145
40	191.70738816261292	pulse	1	t		38.0	2.5	/experiments/AOT/AOT_stimuli/rescaled_final/0121_rv.mp4	0.0	213.97686314582825	
40	193.305988073349	pulse	1	t		38.0	2.5	/experiments/AOT/AOT_stimuli/rescaled_final/0121_rv.mp4	0.0	215.57546305656433	
40	193.42389607429504	fix_post	2		12	38.0	2.5	/experiments/AOT/AOT_stimuli/rescaled_final/0121_rv.mp4	0.0	215.69337105751038	0.09991002082824707
41	193.5238060951233	fix_pre	0		120	39.0	2.5	/experiments/AOT/AOT_stimuli/rescaled_final/1987_rv.mp4	0.0	215.79328107833862	0.9996819496154785
41	194.52348804473877	movie	1		245	39.0	2.5	/experiments/AOT/AOT_stimuli/rescaled_final/1987_rv.mp4	0.0	216.7929630279541	2.500394105911255
41	194.9083390235901	pulse	1	t		39.0	2.5	/experiments/AOT/AOT_stimuli/rescaled_final/1987_rv.mp4	0.0	217.17781400680542	
41	196.50740599632263	pulse	1	t		39.0	2.5	/experiments/AOT/AOT_stimuli/rescaled_final/1987_rv.mp4	0.0	218.77688097953796	
41	197.02388215065002	fix_post	2		12	39.0	2.5	/experiments/AOT/AOT_stimuli/rescaled_final/1987_rv.mp4	0.0	219.29335713386536	0.09987092018127441
42	197.1237530708313	fix_pre	0		119	40.0	2.5	/experiments/AOT/AOT_stimuli/rescaled_final/1635_rv.mp4	0.0	219.39322805404663	0.9917750358581543
42	198.10753202438354	pulse	0	t		40.0	2.5	/experiments/AOT/AOT_stimuli/rescaled_final/1635_rv.mp4	0.0	220.37700700759888	
42	198.11552810668945	movie	1		248	40.0	2.5	/experiments/AOT/AOT_stimuli/rescaled_final/1635_rv.mp4	0.0	220.38500308990479	2.508312940597534
42	199.7068431377411	pulse	1	t		40.0	2.5	/experiments/AOT/AOT_stimuli/rescaled_final/1635_rv.mp4	0.0	221.97631812095642	
42	200.623841047287	fix_post	2		12	40.0	2.5	/experiments/AOT/AOT_stimuli/rescaled_final/1635_rv.mp4	0.0	222.89331603050232	0.09991312026977539
43	200.72375416755676	fix_pre	0		120	41.0	2.5	blank	1.0	222.9932291507721	1.0000648498535156
43	201.30732107162476	pulse	0	t		41.0	2.5	blank	1.0	223.5767960548401	
43	201.72381901741028	movie	1		300	41.0	2.5	blank	1.0	223.9932940006256	2.4999661445617676
43	202.90735816955566	pulse	1	t		41.0	2.5	blank	1.0	225.176833152771	
43	204.22378516197205	fix_post	2		12	41.0	2.5	blank	1.0	226.49326014518738	0.09992790222167969
44	204.32371306419373	fix_pre	0		120	42.0	2.5	/experiments/AOT/AOT_stimuli/rescaled_final/1671_rv.mp4	0.0	226.59318804740906	1.0001170635223389
44	204.5072979927063	pulse	0	t		42.0	2.5	/experiments/AOT/AOT_stimuli/rescaled_final/1671_rv.mp4	0.0	226.77677297592163	
44	205.32383012771606	movie	1		244	42.0	2.5	/experiments/AOT/AOT_stimuli/rescaled_final/1671_rv.mp4	0.0	227.5933051109314	2.5000059604644775
44	206.10731101036072	pulse	1	t		42.0	2.5	/experiments/AOT/AOT_stimuli/rescaled_final/1671_rv.mp4	0.0	228.37678599357605	
44	207.70632410049438	pulse	1	t		42.0	2.5	/experiments/AOT/AOT_stimuli/rescaled_final/1671_rv.mp4	0.0	229.97579908370972	
44	207.82383608818054	fix_post	2		12	42.0	2.5	/experiments/AOT/AOT_stimuli/rescaled_final/1671_rv.mp4	0.0	230.09331107139587	0.09967613220214844
45	207.9235122203827	fix_pre	0		120	43.0	2.5	/experiments/AOT/AOT_stimuli/rescaled_final/0463_rv.mp4	0.0	230.19298720359802	1.0002529621124268
45	208.92376518249512	movie	1		244	43.0	2.5	/experiments/AOT/AOT_stimuli/rescaled_final/0463_rv.mp4	0.0	231.19324016571045	2.4999778270721436
45	209.30698418617249	pulse	1	t		43.0	2.5	/experiments/AOT/AOT_stimuli/rescaled_final/0463_rv.mp4	0.0	231.57645916938782	
45	210.90733313560486	pulse	1	t		43.0	2.5	/experiments/AOT/AOT_stimuli/rescaled_final/0463_rv.mp4	0.0	233.1768081188202	
45	211.42374300956726	fix_post	2		12	43.0	2.5	/experiments/AOT/AOT_stimuli/rescaled_final/0463_rv.mp4	0.0	233.6932179927826	0.09990906715393066
46	211.5236520767212	fix_pre	0		119	44.0	2.5	/experiments/AOT/AOT_stimuli/rescaled_final/2045_fw.mp4	0.0	233.79312705993652	0.9918229579925537
46	212.50731420516968	pulse	0	t		44.0	2.5	/experiments/AOT/AOT_stimuli/rescaled_final/2045_fw.mp4	0.0	234.776789188385	
46	212.51547503471375	movie	1		245	44.0	2.5	/experiments/AOT/AOT_stimuli/rescaled_final/2045_fw.mp4	0.0	234.78495001792908	2.508272171020508
46	214.10835218429565	pulse	1	t		44.0	2.5	/experiments/AOT/AOT_stimuli/rescaled_final/2045_fw.mp4	0.0	236.377827167511	
46	215.02374720573425	fix_post	2		12	44.0	2.5	/experiments/AOT/AOT_stimuli/rescaled_final/2045_fw.mp4	0.0	237.29322218894958	0.10007286071777344
47	215.12382006645203	fix_pre	0		120	45.0	2.5	/experiments/AOT/AOT_stimuli/rescaled_final/2046_fw.mp4	0.0	237.39329504966736	0.9999840259552002
47	215.70732021331787	pulse	0	t		45.0	2.5	/experiments/AOT/AOT_stimuli/rescaled_final/2046_fw.mp4	0.0	237.9767951965332	
47	216.12380409240723	movie	1		244	45.0	2.5	/experiments/AOT/AOT_stimuli/rescaled_final/2046_fw.mp4	0.0	238.39327907562256	2.4999680519104004
47	217.307373046875	pulse	1	t		45.0	2.5	/experiments/AOT/AOT_stimuli/rescaled_final/2046_fw.mp4	0.0	239.57684803009033	
47	218.62377214431763	fix_post	2		12	45.0	2.5	/experiments/AOT/AOT_stimuli/rescaled_final/2046_fw.mp4	0.0	240.89324712753296	0.09995102882385254
48	218.72372317314148	fix_pre	0		120	46.0	2.5	/experiments/AOT/AOT_stimuli/rescaled_final/0056_rv.mp4	0.0	240.9931981563568	1.0000429153442383
48	218.9072790145874	pulse	0	t		46.0	2.5	/experiments/AOT/AOT_stimuli/rescaled_final/0056_rv.mp4	0.0	241.17675399780273	
48	219.72376608848572	movie	1		246	46.0	2.5	/experiments/AOT/AOT_stimuli/rescaled_final/0056_rv.mp4	0.0	241.99324107170105	2.5000569820404053
48	220.50728607177734	pulse	1	t		46.0	2.5	/experiments/AOT/AOT_stimuli/rescaled_final/0056_rv.mp4	0.0	242.77676105499268	
48	222.10680103302002	pulse	1	t		46.0	2.5	/experiments/AOT/AOT_stimuli/rescaled_final/0056_rv.mp4	0.0	244.37627601623535	
48	222.22382307052612	fix_post	2		12	46.0	2.5	/experiments/AOT/AOT_stimuli/rescaled_final/0056_rv.mp4	0.0	244.49329805374146	0.09951496124267578
49	222.3233380317688	fix_pre	0		120	47.0	2.5	blank	1.0	244.59281301498413	0.999993085861206
49	223.32333111763	movie	1		300	47.0	2.5	blank	1.0	245.59280610084534	2.5003340244293213
49	223.7073040008545	pulse	1	t		47.0	2.5	blank	1.0	245.97677898406982	
49	225.30744004249573	pulse	1	t		47.0	2.5	blank	1.0	247.57691502571106	
49	225.82366514205933	fix_post	2		12	47.0	2.5	blank	1.0	248.09314012527466	0.10008692741394043
50	225.92375206947327	fix_pre	0		119	48.0	2.5	/experiments/AOT/AOT_stimuli/rescaled_final/0292_fw.mp4	0.0	248.1932270526886	0.991706132888794
50	226.90679121017456	pulse	0	t		48.0	2.5	/experiments/AOT/AOT_stimuli/rescaled_final/0292_fw.mp4	0.0	249.1762661933899	
50	226.91545820236206	movie	1		247	48.0	2.5	/experiments/AOT/AOT_stimuli/rescaled_final/0292_fw.mp4	0.0	249.1849331855774	2.5080859661102295
50	228.50673007965088	pulse	1	t		48.0	2.5	/experiments/AOT/AOT_stimuli/rescaled_final/0292_fw.mp4	0.0	250.7762050628662	
50	229.4235441684723	fix_post	2		12	48.0	2.5	/experiments/AOT/AOT_stimuli/rescaled_final/0292_fw.mp4	0.0	251.69301915168762	0.10003900527954102
51	229.52358317375183	fix_pre	0		120	49.0	2.5	/experiments/AOT/AOT_stimuli/rescaled_final/1173_fw.mp4	0.0	251.79305815696716	1.0000848770141602
51	230.10846710205078	pulse	0	t		49.0	2.5	/experiments/AOT/AOT_stimuli/rescaled_final/1173_fw.mp4	0.0	252.3779420852661	
51	230.523668050766	movie	1		246	49.0	2.5	/experiments/AOT/AOT_stimuli/rescaled_final/1173_fw.mp4	0.0	252.79314303398132	2.4996390342712402
51	231.7074110507965	pulse	1	t		49.0	2.5	/experiments/AOT/AOT_stimuli/rescaled_final/1173_fw.mp4	0.0	253.97688603401184	
51	233.02330708503723	fix_post	2		12	49.0	2.5	/experiments/AOT/AOT_stimuli/rescaled_final/1173_fw.mp4	0.0	255.29278206825256	0.10041594505310059
52	233.12372303009033	fix_pre	0		120	50.0	2.5	/experiments/AOT/AOT_stimuli/rescaled_final/2066_fw.mp4	0.0	255.39319801330566	0.9995791912078857
52	233.30715703964233	pulse	0	t		50.0	2.5	/experiments/AOT/AOT_stimuli/rescaled_final/2066_fw.mp4	0.0	255.57663202285767	
52	234.12330222129822	movie	1		247	50.0	2.5	/experiments/AOT/AOT_stimuli/rescaled_final/2066_fw.mp4	0.0	256.39277720451355	2.5003678798675537
52	234.90709400177002	pulse	1	t		50.0	2.5	/experiments/AOT/AOT_stimuli/rescaled_final/2066_fw.mp4	0.0	257.17656898498535	
52	236.5071461200714	pulse	1	t		50.0	2.5	/experiments/AOT/AOT_stimuli/rescaled_final/2066_fw.mp4	0.0	258.77662110328674	
52	236.62367010116577	fix_post	2		12	50.0	2.5	/experiments/AOT/AOT_stimuli/rescaled_final/2066_fw.mp4	0.0	258.8931450843811	0.09964108467102051
53	236.7233111858368	fix_pre	0		120	51.0	2.5	/experiments/AOT/AOT_stimuli/rescaled_final/0603_rv.mp4	0.0	258.9927861690521	0.9999158382415771
53	237.72322702407837	movie	1		245	51.0	2.5	/experiments/AOT/AOT_stimuli/rescaled_final/0603_rv.mp4	0.0	259.9927020072937	2.5003609657287598
53	238.10695815086365	pulse	1	t		51.0	2.5	/experiments/AOT/AOT_stimuli/rescaled_final/0603_rv.mp4	0.0	260.376433134079	
53	239.70728302001953	pulse	1	t		51.0	2.5	/experiments/AOT/AOT_stimuli/rescaled_final/0603_rv.mp4	0.0	261.97675800323486	
53	240.22358798980713	fix_post	2		12	51.0	2.5	/experiments/AOT/AOT_stimuli/rescaled_final/0603_rv.mp4	0.0	262.49306297302246	0.10007119178771973
54	240.32365918159485	fix_pre	0		119	52.0	2.5	/experiments/AOT/AOT_stimuli/rescaled_final/1607_rv.mp4	0.0	262.5931341648102	0.991642951965332
54	241.30719017982483	pulse	0	t		52.0	2.5	/experiments/AOT/AOT_stimuli/rescaled_final/1607_rv.mp4	0.0	263.57666516304016	
54	241.31530213356018	movie	1		248	52.0	2.5	/experiments/AOT/AOT_stimuli/rescaled_final/1607_rv.mp4	0.0	263.5847771167755	2.507862091064453
54	242.908105134964	pulse	1	t		52.0	2.5	/experiments/AOT/AOT_stimuli/rescaled_final/1607_rv.mp4	0.0	265.1775801181793	
54	243.82316422462463	fix_post	2		12	52.0	2.5	/experiments/AOT/AOT_stimuli/rescaled_final/1607_rv.mp4	0.0	266.09263920783997	0.10039877891540527
55	243.92356300354004	fix_pre	0		120	53.0	2.5	/experiments/AOT/AOT_stimuli/rescaled_final/0426_fw.mp4	0.0	266.19303798675537	1.0001671314239502
55	244.50708603858948	pulse	0	t		53.0	2.5	/experiments/AOT/AOT_stimuli/rescaled_final/0426_fw.mp4	0.0	266.7765610218048	
55	244.923730134964	movie	1		247	53.0	2.5	/experiments/AOT/AOT_stimuli/rescaled_final/0426_fw.mp4	0.0	267.1932051181793	2.4994418621063232
55	246.1071901321411	pulse	1	t		53.0	2.5	/experiments/AOT/AOT_stimuli/rescaled_final/0426_fw.mp4	0.0	268.37666511535645	
55	247.4231719970703	fix_post	2		12	53.0	2.5	/experiments/AOT/AOT_stimuli/rescaled_final/0426_fw.mp4	0.0	269.69264698028564	0.10054302215576172
56	247.52371501922607	fix_pre	0		120	54.0	2.5	/experiments/AOT/AOT_stimuli/rescaled_final/0183_fw.mp4	0.0	269.7931900024414	0.9994680881500244
56	247.70718717575073	pulse	0	t		54.0	2.5	/experiments/AOT/AOT_stimuli/rescaled_final/0183_fw.mp4	0.0	269.97666215896606	
56	248.5231831073761	movie	1		245	54.0	2.5	/experiments/AOT/AOT_stimuli/rescaled_final/0183_fw.mp4	0.0	270.79265809059143	2.5000100135803223
56	249.30711102485657	pulse	1	t		54.0	2.5	/experiments/AOT/AOT_stimuli/rescaled_final/0183_fw.mp4	0.0	271.5765860080719	
56	250.90667605400085	pulse	1	t		54.0	2.5	/experiments/AOT/AOT_stimuli/rescaled_final/0183_fw.mp4	0.0	273.1761510372162	
56	251.02319312095642	fix_post	2		12	54.0	2.5	/experiments/AOT/AOT_stimuli/rescaled_final/0183_fw.mp4	0.0	273.29266810417175	0.1003880500793457
57	251.12358117103577	fix_pre	0		120	55.0	2.5	blank	1.0	273.3930561542511	1.0000460147857666
57	252.12362718582153	movie	1		300	55.0	2.5	blank	1.0	274.39310216903687	2.499846935272217
57	252.50706720352173	pulse	1	t		55.0	2.5	blank	1.0	274.77654218673706	
57	254.107017993927	pulse	1	t		55.0	2.5	blank	1.0	276.37649297714233	
57	254.62347412109375	fix_post	2		12	55.0	2.5	blank	1.0	276.8929491043091	0.1000359058380127
58	254.72351002693176	fix_pre	0		119	56.0	2.5	/experiments/AOT/AOT_stimuli/rescaled_final/1944_fw.mp4	0.0	276.9929850101471	0.9917480945587158
58	255.70705819129944	pulse	0	t		56.0	2.5	/experiments/AOT/AOT_stimuli/rescaled_final/1944_fw.mp4	0.0	277.97653317451477	
58	255.71525812149048	movie	1		246	56.0	2.5	/experiments/AOT/AOT_stimuli/rescaled_final/1944_fw.mp4	0.0	277.9847331047058	2.50821590423584
58	257.3066020011902	pulse	1	t		56.0	2.5	/experiments/AOT/AOT_stimuli/rescaled_final/1944_fw.mp4	0.0	279.5760769844055	
58	258.2234740257263	fix_post	2		12	56.0	2.5	/experiments/AOT/AOT_stimuli/rescaled_final/1944_fw.mp4	0.0	280.49294900894165	0.1000521183013916
59	258.3235261440277	fix_pre	0		120	57.0	2.5	/experiments/AOT/AOT_stimuli/rescaled_final/1361_fw.mp4	0.0	280.59300112724304	1.0000078678131104
59	258.9070510864258	pulse	0	t		57.0	2.5	/experiments/AOT/AOT_stimuli/rescaled_final/1361_fw.mp4	0.0	281.1765260696411	
59	259.3235340118408	movie	1		246	57.0	2.5	/experiments/AOT/AOT_stimuli/rescaled_final/1361_fw.mp4	0.0	281.59300899505615	2.4995319843292236
59	260.50711607933044	pulse	1	t		57.0	2.5	/experiments/AOT/AOT_stimuli/rescaled_final/1361_fw.mp4	0.0	282.7765910625458	
59	261.82306599617004	fix_post	2		12	57.0	2.5	/experiments/AOT/AOT_stimuli/rescaled_final/1361_fw.mp4	0.0	284.0925409793854	0.10044717788696289
60	261.923513174057	fix_pre	0		120	58.0	2.5	/experiments/AOT/AOT_stimuli/rescaled_final/2045_rv.mp4	0.0	284.19298815727234	0.9995269775390625
60	262.1070830821991	pulse	0	t		58.0	2.5	/experiments/AOT/AOT_stimuli/rescaled_final/2045_rv.mp4	0.0	284.37655806541443	
60	262.92304015159607	movie	1		246	58.0	2.5	/experiments/AOT/AOT_stimuli/rescaled_final/2045_rv.mp4	0.0	285.1925151348114	2.500473976135254
60	263.70704317092896	pulse	1	t		58.0	2.5	/experiments/AOT/AOT_stimuli/rescaled_final/2045_rv.mp4	0.0	285.9765181541443	
60	265.3056330680847	pulse	1	t		58.0	2.5	/experiments/AOT/AOT_stimuli/rescaled_final/2045_rv.mp4	0.0	287.57510805130005	
60	265.4235141277313	fix_post	2		12	58.0	2.5	/experiments/AOT/AOT_stimuli/rescaled_final/2045_rv.mp4	0.0	287.69298911094666	0.09995102882385254
61	265.5234651565552	fix_pre	0		120	59.0	2.5	/experiments/AOT/AOT_stimuli/rescaled_final/1771_rv.mp4	0.0	287.7929401397705	0.999579906463623
61	266.5230450630188	movie	1		245	59.0	2.5	/experiments/AOT/AOT_stimuli/rescaled_final/1771_rv.mp4	0.0	288.79252004623413	2.500427007675171
61	266.9070451259613	pulse	1	t		59.0	2.5	/experiments/AOT/AOT_stimuli/rescaled_final/1771_rv.mp4	0.0	289.17652010917664	
61	268.5070011615753	pulse	1	t		59.0	2.5	/experiments/AOT/AOT_stimuli/rescaled_final/1771_rv.mp4	0.0	290.77647614479065	
61	269.02347207069397	fix_post	2		12	59.0	2.5	/experiments/AOT/AOT_stimuli/rescaled_final/1771_rv.mp4	0.0	291.2929470539093	0.10001611709594727
62	269.1234881877899	fix_pre	0		119	60.0	2.5	/experiments/AOT/AOT_stimuli/rescaled_final/0299_rv.mp4	0.0	291.39296317100525	0.9916658401489258
62	270.10720205307007	pulse	0	t		60.0	2.5	/experiments/AOT/AOT_stimuli/rescaled_final/0299_rv.mp4	0.0	292.3766770362854	
62	270.11515402793884	movie	1		247	60.0	2.5	/experiments/AOT/AOT_stimuli/rescaled_final/0299_rv.mp4	0.0	292.3846290111542	2.508368968963623
62	271.7068510055542	pulse	1	t		60.0	2.5	/experiments/AOT/AOT_stimuli/rescaled_final/0299_rv.mp4	0.0	293.97632598876953	
62	272.62352299690247	fix_post	2		12	60.0	2.5	/experiments/AOT/AOT_stimuli/rescaled_final/0299_rv.mp4	0.0	294.8929979801178	0.09978008270263672
63	272.7233030796051	fix_pre	0		120	61.0	2.5	/experiments/AOT/AOT_stimuli/rescaled_final/0292_rv.mp4	0.0	294.99277806282043	1.000154972076416
63	273.3069519996643	pulse	0	t		61.0	2.5	/experiments/AOT/AOT_stimuli/rescaled_final/0292_rv.mp4	0.0	295.57642698287964	
63	273.7234580516815	movie	1		246	61.0	2.5	/experiments/AOT/AOT_stimuli/rescaled_final/0292_rv.mp4	0.0	295.99293303489685	2.499983072280884
63	274.9069781303406	pulse	1	t		61.0	2.5	/experiments/AOT/AOT_stimuli/rescaled_final/0292_rv.mp4	0.0	297.1764531135559	
63	276.2234411239624	fix_post	2		12	61.0	2.5	/experiments/AOT/AOT_stimuli/rescaled_final/0292_rv.mp4	0.0	298.49291610717773	0.10006093978881836
64	276.3235020637512	fix_pre	0		120	62.0	2.5	blank	1.0	298.59297704696655	0.9995560646057129
64	276.5070140361786	pulse	0	t		62.0	2.5	blank	1.0	298.7764890193939	
64	277.32305812835693	movie	1		300	62.0	2.5	blank	1.0	299.59253311157227	2.4999990463256836
64	278.1069030761719	pulse	1	t		62.0	2.5	blank	1.0	300.3763780593872	
64	279.7070209980011	pulse	1	t		62.0	2.5	blank	1.0	301.97649598121643	
64	279.8230571746826	fix_post	2		12	62.0	2.5	blank	1.0	302.09253215789795	0.10037994384765625
65	279.9234371185303	fix_pre	0		120	63.0	2.5	/experiments/AOT/AOT_stimuli/rescaled_final/0489_rv.mp4	0.0	302.1929121017456	0.9999909400939941
65	280.92342805862427	movie	1		248	63.0	2.5	/experiments/AOT/AOT_stimuli/rescaled_final/0489_rv.mp4	0.0	303.1929030418396	2.499603033065796
65	281.30649304389954	pulse	1	t		63.0	2.5	/experiments/AOT/AOT_stimuli/rescaled_final/0489_rv.mp4	0.0	303.57596802711487	
65	282.90652108192444	pulse	1	t		63.0	2.5	/experiments/AOT/AOT_stimuli/rescaled_final/0489_rv.mp4	0.0	305.17599606513977	
65	283.42303109169006	fix_post	2		12	63.0	2.5	/experiments/AOT/AOT_stimuli/rescaled_final/0489_rv.mp4	0.0	305.6925060749054	0.1004180908203125
66	283.5234491825104	fix_pre	0		119	64.0	2.5	/experiments/AOT/AOT_stimuli/rescaled_final/0426_rv.mp4	0.0	305.7929241657257	0.9913690090179443
66	284.5066611766815	pulse	0	t		64.0	2.5	/experiments/AOT/AOT_stimuli/rescaled_final/0426_rv.mp4	0.0	306.77613615989685	
66	284.5148181915283	movie	1		250	64.0	2.5	/experiments/AOT/AOT_stimuli/rescaled_final/0426_rv.mp4	0.0	306.78429317474365	2.508565902709961
66	286.1064381599426	pulse	1	t		64.0	2.5	/experiments/AOT/AOT_stimuli/rescaled_final/0426_rv.mp4	0.0	308.37591314315796	
66	287.0233840942383	fix_post	2		12	64.0	2.5	/experiments/AOT/AOT_stimuli/rescaled_final/0426_rv.mp4	0.0	309.2928590774536	0.09965109825134277
67	287.1230351924896	fix_pre	0		120	65.0	2.5	/experiments/AOT/AOT_stimuli/rescaled_final/1359_rv.mp4	0.0	309.39251017570496	1.0003678798675537
67	287.7082381248474	pulse	0	t		65.0	2.5	/experiments/AOT/AOT_stimuli/rescaled_final/1359_rv.mp4	0.0	309.97771310806274	
67	288.1234030723572	movie	1		246	65.0	2.5	/experiments/AOT/AOT_stimuli/rescaled_final/1359_rv.mp4	0.0	310.3928780555725	2.499990940093994
67	289.30694818496704	pulse	1	t		65.0	2.5	/experiments/AOT/AOT_stimuli/rescaled_final/1359_rv.mp4	0.0	311.5764231681824	
67	290.6233940124512	fix_post	2		12	65.0	2.5	/experiments/AOT/AOT_stimuli/rescaled_final/1359_rv.mp4	0.0	312.8928689956665	0.10006999969482422
68	290.723464012146	fix_pre	0		120	66.0	2.5	/experiments/AOT/AOT_stimuli/rescaled_final/0781_fw.mp4	0.0	312.9929389953613	0.9995460510253906
68	290.9069390296936	pulse	0	t		66.0	2.5	/experiments/AOT/AOT_stimuli/rescaled_final/0781_fw.mp4	0.0	313.17641401290894	
68	291.7230100631714	movie	1		248	66.0	2.5	/experiments/AOT/AOT_stimuli/rescaled_final/0781_fw.mp4	0.0	313.9924850463867	2.4999101161956787
68	292.5068302154541	pulse	1	t		66.0	2.5	/experiments/AOT/AOT_stimuli/rescaled_final/0781_fw.mp4	0.0	314.77630519866943	
68	294.10639119148254	pulse	1	t		66.0	2.5	/experiments/AOT/AOT_stimuli/rescaled_final/0781_fw.mp4	0.0	316.3758661746979	
68	294.22292017936707	fix_post	2		12	66.0	2.5	/experiments/AOT/AOT_stimuli/rescaled_final/0781_fw.mp4	0.0	316.4923951625824	0.10036087036132812
69	294.3232810497284	fix_pre	0		120	67.0	2.5	/experiments/AOT/AOT_stimuli/rescaled_final/1672_fw.mp4	0.0	316.5927560329437	0.9997060298919678
69	295.32298707962036	movie	1		246	67.0	2.5	/experiments/AOT/AOT_stimuli/rescaled_final/1672_fw.mp4	0.0	317.5924620628357	2.5003631114959717
69	295.70646119117737	pulse	1	t		67.0	2.5	/experiments/AOT/AOT_stimuli/rescaled_final/1672_fw.mp4	0.0	317.9759361743927	
69	297.30686712265015	pulse	1	t		67.0	2.5	/experiments/AOT/AOT_stimuli/rescaled_final/1672_fw.mp4	0.0	319.5763421058655	
69	297.82335019111633	fix_post	2		12	67.0	2.5	/experiments/AOT/AOT_stimuli/rescaled_final/1672_fw.mp4	0.0	320.09282517433167	0.10000300407409668
70	297.92335319519043	fix_pre	0		119	68.0	2.5	/experiments/AOT/AOT_stimuli/rescaled_final/0695_fw.mp4	0.0	320.19282817840576	0.9916830062866211
70	298.90678310394287	pulse	0	t		68.0	2.5	/experiments/AOT/AOT_stimuli/rescaled_final/0695_fw.mp4	0.0	321.1762580871582	
70	298.91503620147705	movie	1		246	68.0	2.5	/experiments/AOT/AOT_stimuli/rescaled_final/0695_fw.mp4	0.0	321.1845111846924	2.508283853530884
70	300.5064949989319	pulse	1	t		68.0	2.5	/experiments/AOT/AOT_stimuli/rescaled_final/0695_fw.mp4	0.0	322.7759699821472	
70	301.42332005500793	fix_post	2		12	68.0	2.5	/experiments/AOT/AOT_stimuli/rescaled_final/0695_fw.mp4	0.0	323.69279503822327	0.09997916221618652
71	301.5232992172241	fix_pre	0		120	69.0	2.5	/experiments/AOT/AOT_stimuli/rescaled_final/0312_fw.mp4	0.0	323.79277420043945	0.999971866607666
71	302.1068260669708	pulse	0	t		69.0	2.5	/experiments/AOT/AOT_stimuli/rescaled_final/0312_fw.mp4	0.0	324.37630105018616	
71	302.5232710838318	movie	1		245	69.0	2.5	/experiments/AOT/AOT_stimuli/rescaled_final/0312_fw.mp4	0.0	324.7927460670471	2.4996559619903564
71	303.7069511413574	pulse	1	t		69.0	2.5	/experiments/AOT/AOT_stimuli/rescaled_final/0312_fw.mp4	0.0	325.97642612457275	
71	305.02292704582214	fix_post	2		12	69.0	2.5	/experiments/AOT/AOT_stimuli/rescaled_final/0312_fw.mp4	0.0	327.2924020290375	0.10038399696350098
72	305.12331104278564	fix_pre	0		120	70.0	2.5	blank	1.0	327.392786026001	0.9999949932098389
72	305.30682921409607	pulse	0	t		70.0	2.5	blank	1.0	327.5763041973114	
72	306.1233060359955	movie	1		300	70.0	2.5	blank	1.0	328.3927810192108	2.5001070499420166
72	306.90683603286743	pulse	1	t		70.0	2.5	blank	1.0	329.17631101608276	
72	308.5067641735077	pulse	1	t		70.0	2.5	blank	1.0	330.776239156723	
72	308.6234130859375	fix_post	2		12	70.0	2.5	blank	1.0	330.89288806915283	0.0998239517211914
73	308.7232370376587	fix_pre	0		120	71.0	2.5	/experiments/AOT/AOT_stimuli/rescaled_final/1441_fw.mp4	0.0	330.992712020874	0.9995930194854736
73	309.72283005714417	movie	1		247	71.0	2.5	/experiments/AOT/AOT_stimuli/rescaled_final/1441_fw.mp4	0.0	331.9923050403595	2.5000030994415283
73	310.1065649986267	pulse	1	t		71.0	2.5	/experiments/AOT/AOT_stimuli/rescaled_final/1441_fw.mp4	0.0	332.37603998184204	
73	311.70676612854004	pulse	1	t		71.0	2.5	/experiments/AOT/AOT_stimuli/rescaled_final/1441_fw.mp4	0.0	333.97624111175537	
73	312.2228331565857	fix_post	2		12	71.0	2.5	/experiments/AOT/AOT_stimuli/rescaled_final/1441_fw.mp4	0.0	334.492308139801	0.10033702850341797
74	312.3231701850891	fix_pre	0		119	72.0	2.5	/experiments/AOT/AOT_stimuli/rescaled_final/0212_rv.mp4	0.0	334.59264516830444	0.991765022277832
74	313.3068070411682	pulse	0	t		72.0	2.5	/experiments/AOT/AOT_stimuli/rescaled_final/0212_rv.mp4	0.0	335.57628202438354	
74	313.31493520736694	movie	1		247	72.0	2.5	/experiments/AOT/AOT_stimuli/rescaled_final/0212_rv.mp4	0.0	335.5844101905823	2.507889986038208
74	314.9062170982361	pulse	1	t		72.0	2.5	/experiments/AOT/AOT_stimuli/rescaled_final/0212_rv.mp4	0.0	337.1756920814514	
74	315.82282519340515	fix_post	2		12	72.0	2.5	/experiments/AOT/AOT_stimuli/rescaled_final/0212_rv.mp4	0.0	338.0923001766205	0.10042285919189453
75	315.92324805259705	fix_pre	0		120	73.0	2.5	/experiments/AOT/AOT_stimuli/rescaled_final/2125_fw.mp4	0.0	338.1927230358124	1.0000331401824951
75	316.50672602653503	pulse	0	t		73.0	2.5	/experiments/AOT/AOT_stimuli/rescaled_final/2125_fw.mp4	0.0	338.77620100975037	
75	316.92328119277954	movie	1		246	73.0	2.5	/experiments/AOT/AOT_stimuli/rescaled_final/2125_fw.mp4	0.0	339.1927561759949	2.4999849796295166
75	318.1067740917206	pulse	1	t		73.0	2.5	/experiments/AOT/AOT_stimuli/rescaled_final/2125_fw.mp4	0.0	340.3762490749359	
75	319.42326617240906	fix_post	2		12	73.0	2.5	/experiments/AOT/AOT_stimuli/rescaled_final/2125_fw.mp4	0.0	341.6927411556244	0.10001993179321289
76	319.52328610420227	fix_pre	0		120	74.0	2.5	/experiments/AOT/AOT_stimuli/rescaled_final/1405_rv.mp4	0.0	341.7927610874176	1.0000190734863281
76	319.7067701816559	pulse	0	t		74.0	2.5	/experiments/AOT/AOT_stimuli/rescaled_final/1405_rv.mp4	0.0	341.9762451648712	
76	320.5233051776886	movie	1		246	74.0	2.5	/experiments/AOT/AOT_stimuli/rescaled_final/1405_rv.mp4	0.0	342.79278016090393	2.499433994293213
76	321.3069190979004	pulse	1	t		74.0	2.5	/experiments/AOT/AOT_stimuli/rescaled_final/1405_rv.mp4	0.0	343.5763940811157	
76	322.90635919570923	pulse	1	t		74.0	2.5	/experiments/AOT/AOT_stimuli/rescaled_final/1405_rv.mp4	0.0	345.17583417892456	
76	323.0227391719818	fix_post	2		12	74.0	2.5	/experiments/AOT/AOT_stimuli/rescaled_final/1405_rv.mp4	0.0	345.29221415519714	0.10045194625854492
77	323.12319111824036	fix_pre	0		120	75.0	2.5	/experiments/AOT/AOT_stimuli/rescaled_final/0024_rv.mp4	0.0	345.3926661014557	0.9996180534362793
77	324.12280917167664	movie	1		245	75.0	2.5	/experiments/AOT/AOT_stimuli/rescaled_final/0024_rv.mp4	0.0	346.39228415489197	2.500541925430298
77	324.507119178772	pulse	1	t		75.0	2.5	/experiments/AOT/AOT_stimuli/rescaled_final/0024_rv.mp4	0.0	346.7765941619873	
77	326.10674810409546	pulse	1	t		75.0	2.5	/experiments/AOT/AOT_stimuli/rescaled_final/0024_rv.mp4	0.0	348.3762230873108	
77	326.62335109710693	fix_post	2		12	75.0	2.5	/experiments/AOT/AOT_stimuli/rescaled_final/0024_rv.mp4	0.0	348.89282608032227	0.09984397888183594
78	326.72319507598877	fix_pre	0		119	76.0	2.5	/experiments/AOT/AOT_stimuli/rescaled_final/1205_rv.mp4	0.0	348.9926700592041	0.9916260242462158
78	327.7066831588745	pulse	0	t		76.0	2.5	/experiments/AOT/AOT_stimuli/rescaled_final/1205_rv.mp4	0.0	349.97615814208984	
78	327.714821100235	movie	1		247	76.0	2.5	/experiments/AOT/AOT_stimuli/rescaled_final/1205_rv.mp4	0.0	349.9842960834503	2.508342981338501
78	329.3068389892578	pulse	1	t		76.0	2.5	/experiments/AOT/AOT_stimuli/rescaled_final/1205_rv.mp4	0.0	351.57631397247314	
78	330.2231640815735	fix_post	2		12	76.0	2.5	/experiments/AOT/AOT_stimuli/rescaled_final/1205_rv.mp4	0.0	352.4926390647888	0.09994792938232422
79	330.3231120109558	fix_pre	0		120	77.0	2.5	blank	1.0	352.59258699417114	1.0001521110534668
79	330.9079830646515	pulse	0	t		77.0	2.5	blank	1.0	353.1774580478668	
79	331.3232641220093	movie	1		300	77.0	2.5	blank	1.0	353.5927391052246	2.499906063079834
79	332.5067050457001	pulse	1	t		77.0	2.5	blank	1.0	354.7761800289154	
79	333.8231701850891	fix_post	2		12	77.0	2.5	blank	1.0	356.09264516830444	0.09997200965881348
80	333.9231421947479	fix_pre	0		120	78.0	2.5	/experiments/AOT/AOT_stimuli/rescaled_final/1014_fw.mp4	0.0	356.19261717796326	1.000140905380249
80	334.10669016838074	pulse	0	t		78.0	2.5	/experiments/AOT/AOT_stimuli/rescaled_final/1014_fw.mp4	0.0	356.37616515159607	
80	334.9232831001282	movie	1		245	78.0	2.5	/experiments/AOT/AOT_stimuli/rescaled_final/1014_fw.mp4	0.0	357.1927580833435	2.4996020793914795
80	335.70672607421875	pulse	1	t		78.0	2.5	/experiments/AOT/AOT_stimuli/rescaled_final/1014_fw.mp4	0.0	357.9762010574341	
80	337.3062491416931	pulse	1	t		78.0	2.5	/experiments/AOT/AOT_stimuli/rescaled_final/1014_fw.mp4	0.0	359.57572412490845	
80	337.42288517951965	fix_post	2		12	78.0	2.5	/experiments/AOT/AOT_stimuli/rescaled_final/1014_fw.mp4	0.0	359.692360162735	0.10034298896789551
81	337.52322816848755	fix_pre	0		120	79.0	2.5	/experiments/AOT/AOT_stimuli/rescaled_final/2045_rv.mp4	0.0	359.7927031517029	0.999500036239624
81	338.5227282047272	movie	1		244	79.0	2.5	/experiments/AOT/AOT_stimuli/rescaled_final/2045_rv.mp4	0.0	360.7922031879425	2.500262975692749
81	338.90608310699463	pulse	1	t		79.0	2.5	/experiments/AOT/AOT_stimuli/rescaled_final/2045_rv.mp4	0.0	361.17555809020996	
81	340.5068190097809	pulse	1	t		79.0	2.5	/experiments/AOT/AOT_stimuli/rescaled_final/2045_rv.mp4	0.0	362.7762939929962	
81	341.0229911804199	fix_post	2		12	79.0	2.5	/experiments/AOT/AOT_stimuli/rescaled_final/2045_rv.mp4	0.0	363.29246616363525	0.10042786598205566
82	341.123419046402	fix_pre	0		119	80.0	2.5	/experiments/AOT/AOT_stimuli/rescaled_final/1364_rv.mp4	0.0	363.3928940296173	0.9914369583129883
82	342.1065502166748	pulse	0	t		80.0	2.5	/experiments/AOT/AOT_stimuli/rescaled_final/1364_rv.mp4	0.0	364.37602519989014	
82	342.11485600471497	movie	1		246	80.0	2.5	/experiments/AOT/AOT_stimuli/rescaled_final/1364_rv.mp4	0.0	364.3843309879303	2.508352041244507
82	343.70694613456726	pulse	1	t		80.0	2.5	/experiments/AOT/AOT_stimuli/rescaled_final/1364_rv.mp4	0.0	365.9764211177826	
82	344.6232080459595	fix_post	2		12	80.0	2.5	/experiments/AOT/AOT_stimuli/rescaled_final/1364_rv.mp4	0.0	366.8926830291748	0.09993410110473633
83	344.7231421470642	fix_pre	0		120	81.0	2.5	/experiments/AOT/AOT_stimuli/rescaled_final/0146_fw.mp4	0.0	366.99261713027954	0.9999208450317383
83	345.30664801597595	pulse	0	t		81.0	2.5	/experiments/AOT/AOT_stimuli/rescaled_final/0146_fw.mp4	0.0	367.5761229991913	
83	345.72306299209595	movie	1		245	81.0	2.5	/experiments/AOT/AOT_stimuli/rescaled_final/0146_fw.mp4	0.0	367.9925379753113	2.4995779991149902
83	346.90676522254944	pulse	1	t		81.0	2.5	/experiments/AOT/AOT_stimuli/rescaled_final/0146_fw.mp4	0.0	369.17624020576477	
83	348.22264099121094	fix_post	2		12	81.0	2.5	/experiments/AOT/AOT_stimuli/rescaled_final/0146_fw.mp4	0.0	370.49211597442627	0.10054206848144531
84	348.3231830596924	fix_pre	0		120	82.0	2.5	/experiments/AOT/AOT_stimuli/rescaled_final/0200_rv.mp4	0.0	370.5926580429077	0.999946117401123
84	348.5066261291504	pulse	0	t		82.0	2.5	/experiments/AOT/AOT_stimuli/rescaled_final/0200_rv.mp4	0.0	370.7761011123657	
84	349.3231291770935	movie	1		248	82.0	2.5	/experiments/AOT/AOT_stimuli/rescaled_final/0200_rv.mp4	0.0	371.59260416030884	2.4999630451202393
84	350.1064851284027	pulse	1	t		82.0	2.5	/experiments/AOT/AOT_stimuli/rescaled_final/0200_rv.mp4	0.0	372.37596011161804	
84	351.70651507377625	pulse	1	t		82.0	2.5	/experiments/AOT/AOT_stimuli/rescaled_final/0200_rv.mp4	0.0	373.9759900569916	
84	351.82309222221375	fix_post	2		12	82.0	2.5	/experiments/AOT/AOT_stimuli/rescaled_final/0200_rv.mp4	0.0	374.0925672054291	0.10000276565551758
85	351.92309498786926	fix_pre	0		120	83.0	2.5	blank	1.0	374.1925699710846	1.000007152557373
85	352.92310214042664	movie	1		300	83.0	2.5	blank	1.0	375.19257712364197	2.4994900226593018
85	353.30676102638245	pulse	1	t		83.0	2.5	blank	1.0	375.5762360095978	
85	354.9065911769867	pulse	1	t		83.0	2.5	blank	1.0	377.176066160202	
85	355.42259216308594	fix_post	2		12	83.0	2.5	blank	1.0	377.69206714630127	0.10007405281066895
87	355.5226662158966	stim	0		1716					377.79214119911194	14.300339937210083
87	356.50658321380615	pulse	0	t						378.7760581970215	
87	358.1065351963043	pulse	0	t						380.37601017951965	
87	359.7065420150757	pulse	0	t						381.976016998291	
87	361.3064601421356	pulse	0	t						383.57593512535095	
87	362.90655517578125	pulse	0	t						385.1760301589966	
87	364.5064721107483	pulse	0	t						386.7759470939636	
87	366.1067781448364	pulse	0	t						388.37625312805176	
87	367.70653104782104	pulse	0	t						389.9760060310364	
87	369.30654406547546	pulse	0	t						391.5760190486908	
