trial_nr	onset	event_type	phase	response	nr_frames	movie_index	movie_duration	movie_file	onset_abs	duration
0	0.05722220800817013	stim	0		1674				13.519270415999927	14.234169624978676
0	14.28300445806235	response	0	space					27.745052666054107	
1	14.291391832986847	stim	0		248				27.753440040978603	2.1854562090011314
1	16.468687125016004	pulse	0	t					29.93073533300776	
1	16.476848041987978	stim	1		49				29.938896249979734	0.4143352910177782
2	16.891183333005756	fix_pre	0		119	0.0	2.0	/Users/shufanzhang/Documents/PhD/Arrow_of_time/hcp_movie_eyetracking-main/movs/MomentsInTime/groups/group2/final_videos/1_S_59eT4XDXNno_25.mp4	30.353231540997513	0.9987709589768201
2	17.889954291982576	movie	1		236	0.0	2.0	/Users/shufanzhang/Documents/PhD/Arrow_of_time/hcp_movie_eyetracking-main/movs/MomentsInTime/groups/group2/final_videos/1_S_59eT4XDXNno_25.mp4	31.352002499974333	1.9928959580138326
2	19.88285024999641	fix_post	2		117	0.0	2.0	/Users/shufanzhang/Documents/PhD/Arrow_of_time/hcp_movie_eyetracking-main/movs/MomentsInTime/groups/group2/final_videos/1_S_59eT4XDXNno_25.mp4	33.344898457988165	0.993910750024952
3	20.87676100002136	fix_pre	0		119	1.0	2.0	/Users/shufanzhang/Documents/PhD/Arrow_of_time/hcp_movie_eyetracking-main/movs/MomentsInTime/groups/group2/final_videos/2_S_yt-Id-f63kUHsE_20.mp4	34.33880920801312	1.0182380829937756
3	21.894999083015136	movie	1		240	1.0	2.0	/Users/shufanzhang/Documents/PhD/Arrow_of_time/hcp_movie_eyetracking-main/movs/MomentsInTime/groups/group2/final_videos/2_S_yt-Id-f63kUHsE_20.mp4	35.35704729100689	1.9885982499690726
3	23.88359733298421	fix_post	2		118	1.0	2.0	/Users/shufanzhang/Documents/PhD/Arrow_of_time/hcp_movie_eyetracking-main/movs/MomentsInTime/groups/group2/final_videos/2_S_yt-Id-f63kUHsE_20.mp4	37.345645540975966	0.9958702090661973
4	24.879467542050406	fix_pre	0		119	2.0	2.0	/Users/shufanzhang/Documents/PhD/Arrow_of_time/hcp_movie_eyetracking-main/movs/MomentsInTime/groups/group2/final_videos/1_S_yt-ChAhBD9LrsU_223.mp4	38.34151575004216	1.0047420000191778
4	25.884209542069584	movie	1		235	2.0	2.0	/Users/shufanzhang/Documents/PhD/Arrow_of_time/hcp_movie_eyetracking-main/movs/MomentsInTime/groups/group2/final_videos/1_S_yt-ChAhBD9LrsU_223.mp4	39.34625775006134	2.0002302079228684
4	27.884439749992453	fix_post	2		119	2.0	2.0	/Users/shufanzhang/Documents/PhD/Arrow_of_time/hcp_movie_eyetracking-main/movs/MomentsInTime/groups/group2/final_videos/1_S_yt-ChAhBD9LrsU_223.mp4	41.34648795798421	0.9934689999790862
5	28.87790874997154	fix_pre	0		118	3.0	2.0	/Users/shufanzhang/Documents/PhD/Arrow_of_time/hcp_movie_eyetracking-main/movs/MomentsInTime/groups/group2/final_videos/1_S_R_yt-2V2tq9-O_Nc_1669.mp4	42.339956957963295	1.014577167108655
5	29.892485917080194	movie	1		238	3.0	2.0	/Users/shufanzhang/Documents/PhD/Arrow_of_time/hcp_movie_eyetracking-main/movs/MomentsInTime/groups/group2/final_videos/1_S_R_yt-2V2tq9-O_Nc_1669.mp4	43.35453412507195	1.9898443749407306
5	31.882330292020924	fix_post	2		119	3.0	2.0	/Users/shufanzhang/Documents/PhD/Arrow_of_time/hcp_movie_eyetracking-main/movs/MomentsInTime/groups/group2/final_videos/1_S_R_yt-2V2tq9-O_Nc_1669.mp4	45.34437850001268	1.0045994999818504
6	32.886929792002775	fix_pre	0		119	4.0	2.0	/Users/shufanzhang/Documents/PhD/Arrow_of_time/hcp_movie_eyetracking-main/movs/MomentsInTime/groups/group2/final_videos/2_S_yt-ZBk_XFb5PGo_25.mp4	46.34897799999453	1.0060998330591246
6	33.8930296250619	movie	1		237	4.0	2.0	/Users/shufanzhang/Documents/PhD/Arrow_of_time/hcp_movie_eyetracking-main/movs/MomentsInTime/groups/group2/final_videos/2_S_yt-ZBk_XFb5PGo_25.mp4	47.355077833053656	1.985587166971527
6	35.87861679203343	fix_post	2		119	4.0	2.0	/Users/shufanzhang/Documents/PhD/Arrow_of_time/hcp_movie_eyetracking-main/movs/MomentsInTime/groups/group2/final_videos/2_S_yt-ZBk_XFb5PGo_25.mp4	49.34066500002518	1.011364083038643
7	36.88998087507207	fix_pre	0		116	5.0	2.0	/Users/shufanzhang/Documents/PhD/Arrow_of_time/hcp_movie_eyetracking-main/movs/MomentsInTime/groups/group2/final_videos/1_S_yt-3E02UEHdoZ4_752.mp4	50.352029083063826	1.00612683291547
7	37.89610770798754	movie	1		240	5.0	2.0	/Users/shufanzhang/Documents/PhD/Arrow_of_time/hcp_movie_eyetracking-main/movs/MomentsInTime/groups/group2/final_videos/1_S_yt-3E02UEHdoZ4_752.mp4	51.358155915979296	1.9920724590774626
7	39.888180167065	fix_post	2		120	5.0	2.0	/Users/shufanzhang/Documents/PhD/Arrow_of_time/hcp_movie_eyetracking-main/movs/MomentsInTime/groups/group2/final_videos/1_S_yt-3E02UEHdoZ4_752.mp4	53.35022837505676	0.9961842079646885
8	40.88436437502969	fix_pre	0		120	6.0	2.0	/Users/shufanzhang/Documents/PhD/Arrow_of_time/hcp_movie_eyetracking-main/movs/MomentsInTime/groups/group2/final_videos/2_S_R_yt-I2n2eo2zoZs_133.mp4	54.34641258302145	1.0196837920229882
8	41.90404816705268	movie	1		239	6.0	2.0	/Users/shufanzhang/Documents/PhD/Arrow_of_time/hcp_movie_eyetracking-main/movs/MomentsInTime/groups/group2/final_videos/2_S_R_yt-I2n2eo2zoZs_133.mp4	55.366096375044435	1.9846539159771055
8	43.888702083029784	fix_post	2		120	6.0	2.0	/Users/shufanzhang/Documents/PhD/Arrow_of_time/hcp_movie_eyetracking-main/movs/MomentsInTime/groups/group2/final_videos/2_S_R_yt-I2n2eo2zoZs_133.mp4	57.35075029102154	1.0008271669503301
9	44.889529249980114	fix_pre	0		118	7.0	2.0	/Users/shufanzhang/Documents/PhD/Arrow_of_time/hcp_movie_eyetracking-main/movs/MomentsInTime/groups/group2/final_videos/2_S_yt-ZwnliF0525U_95.mp4	58.35157745797187	1.0000336250523105
9	45.889562875032425	movie	1		241	7.0	2.0	/Users/shufanzhang/Documents/PhD/Arrow_of_time/hcp_movie_eyetracking-main/movs/MomentsInTime/groups/group2/final_videos/2_S_yt-ZwnliF0525U_95.mp4	59.35161108302418	1.992906125029549
9	47.882469000061974	fix_post	2		120	7.0	2.0	/Users/shufanzhang/Documents/PhD/Arrow_of_time/hcp_movie_eyetracking-main/movs/MomentsInTime/groups/group2/final_videos/2_S_yt-ZwnliF0525U_95.mp4	61.34451720805373	1.0067709579598159
10	48.88923995802179	fix_pre	0		118	8.0	2.0	/Users/shufanzhang/Documents/PhD/Arrow_of_time/hcp_movie_eyetracking-main/movs/MomentsInTime/groups/group2/final_videos/1_S_yt-WpLgDX6Yw_s_20.mp4	62.351288166013546	1.0012814169749618
10	49.89052137499675	movie	1		241	8.0	2.0	/Users/shufanzhang/Documents/PhD/Arrow_of_time/hcp_movie_eyetracking-main/movs/MomentsInTime/groups/group2/final_videos/1_S_yt-WpLgDX6Yw_s_20.mp4	63.35256958298851	1.9964336670236662
10	51.88695504202042	fix_post	2		119	8.0	2.0	/Users/shufanzhang/Documents/PhD/Arrow_of_time/hcp_movie_eyetracking-main/movs/MomentsInTime/groups/group2/final_videos/1_S_yt-WpLgDX6Yw_s_20.mp4	65.34900325001217	0.9911843329900876
11	52.878139375010505	fix_pre	0		120	9.0	2.0	/Users/shufanzhang/Documents/PhD/Arrow_of_time/hcp_movie_eyetracking-main/movs/MomentsInTime/groups/group2/final_videos/2_S_yt-YykKZWKmLnQ_386.mp4	66.34018758300226	1.0100912919733673
11	53.88823066698387	movie	1		240	9.0	2.0	/Users/shufanzhang/Documents/PhD/Arrow_of_time/hcp_movie_eyetracking-main/movs/MomentsInTime/groups/group2/final_videos/2_S_yt-YykKZWKmLnQ_386.mp4	67.35027887497563	1.9993326250696555
11	55.88756329205353	fix_post	2		117	9.0	2.0	/Users/shufanzhang/Documents/PhD/Arrow_of_time/hcp_movie_eyetracking-main/movs/MomentsInTime/groups/group2/final_videos/2_S_yt-YykKZWKmLnQ_386.mp4	69.34961150004528	1.0027787080034614
12	56.89034200005699	fix_pre	0		119	10.0	2.0	/Users/shufanzhang/Documents/PhD/Arrow_of_time/hcp_movie_eyetracking-main/movs/MomentsInTime/groups/group2/final_videos/2_S_yt-w_C-15eJeCQ_191.mp4	70.35239020804875	1.009578249999322
12	57.89992025005631	movie	1		239	10.0	2.0	/Users/shufanzhang/Documents/PhD/Arrow_of_time/hcp_movie_eyetracking-main/movs/MomentsInTime/groups/group2/final_videos/2_S_yt-w_C-15eJeCQ_191.mp4	71.36196845804807	1.982794167008251
12	59.88271441706456	fix_post	2		120	10.0	2.0	/Users/shufanzhang/Documents/PhD/Arrow_of_time/hcp_movie_eyetracking-main/movs/MomentsInTime/groups/group2/final_videos/2_S_yt-w_C-15eJeCQ_191.mp4	73.34476262505632	1.000337583012879
13	60.88305200007744	fix_pre	0		120	11.0	2.0	/Users/shufanzhang/Documents/PhD/Arrow_of_time/hcp_movie_eyetracking-main/movs/MomentsInTime/groups/group2/final_videos/1_S_yt-RvdcgC9LFy8_16.mp4	74.3451002080692	1.0114184999838471
13	61.89447050006129	movie	1		240	11.0	2.0	/Users/shufanzhang/Documents/PhD/Arrow_of_time/hcp_movie_eyetracking-main/movs/MomentsInTime/groups/group2/final_videos/1_S_yt-RvdcgC9LFy8_16.mp4	75.35651870805304	1.9942508329404518
13	63.88872133300174	fix_post	2		120	11.0	2.0	/Users/shufanzhang/Documents/PhD/Arrow_of_time/hcp_movie_eyetracking-main/movs/MomentsInTime/groups/group2/final_videos/1_S_yt-RvdcgC9LFy8_16.mp4	77.3507695409935	0.9999261670745909
14	64.88864750007633	fix_pre	0		119	12.0	2.0	/Users/shufanzhang/Documents/PhD/Arrow_of_time/hcp_movie_eyetracking-main/movs/MomentsInTime/groups/group2/final_videos/2_S_yt--5ls65Ue1RA_52.mp4	78.35069570806809	1.0005487919552252
14	65.88919629203156	movie	1		238	12.0	2.0	/Users/shufanzhang/Documents/PhD/Arrow_of_time/hcp_movie_eyetracking-main/movs/MomentsInTime/groups/group2/final_videos/2_S_yt--5ls65Ue1RA_52.mp4	79.35124450002331	1.9938093329546973
14	67.88300562498625	fix_post	2		120	12.0	2.0	/Users/shufanzhang/Documents/PhD/Arrow_of_time/hcp_movie_eyetracking-main/movs/MomentsInTime/groups/group2/final_videos/2_S_yt--5ls65Ue1RA_52.mp4	81.34505383297801	1.0063288330566138
15	68.88933445804287	fix_pre	0		120	13.0	2.0	/Users/shufanzhang/Documents/PhD/Arrow_of_time/hcp_movie_eyetracking-main/movs/MomentsInTime/groups/group2/final_videos/1_S_R_yt-l6WPyKg_3is_154.mp4	82.35138266603462	1.0052518750308082
15	69.89458633307368	movie	1		239	13.0	2.0	/Users/shufanzhang/Documents/PhD/Arrow_of_time/hcp_movie_eyetracking-main/movs/MomentsInTime/groups/group2/final_videos/1_S_R_yt-l6WPyKg_3is_154.mp4	83.35663454106543	1.9929223749786615
15	71.88750870805234	fix_post	2		120	13.0	2.0	/Users/shufanzhang/Documents/PhD/Arrow_of_time/hcp_movie_eyetracking-main/movs/MomentsInTime/groups/group2/final_videos/1_S_R_yt-l6WPyKg_3is_154.mp4	85.3495569160441	1.002314333920367
16	72.8898230419727	fix_pre	0		120	14.0	2.0	/Users/shufanzhang/Documents/PhD/Arrow_of_time/hcp_movie_eyetracking-main/movs/MomentsInTime/groups/group2/final_videos/1_S_R_yt-vY49oIv_dWg_73.mp4	86.35187124996446	1.0062020000768825
16	73.89602504204959	movie	1		236	14.0	2.0	/Users/shufanzhang/Documents/PhD/Arrow_of_time/hcp_movie_eyetracking-main/movs/MomentsInTime/groups/group2/final_videos/1_S_R_yt-vY49oIv_dWg_73.mp4	87.35807325004134	1.98262895795051
16	75.8786540000001	fix_post	2		119	14.0	2.0	/Users/shufanzhang/Documents/PhD/Arrow_of_time/hcp_movie_eyetracking-main/movs/MomentsInTime/groups/group2/final_videos/1_S_R_yt-vY49oIv_dWg_73.mp4	89.34070220799185	0.9998325420310721
17	76.87848654203117	fix_pre	0		121	15.0	2.0	/Users/shufanzhang/Documents/PhD/Arrow_of_time/hcp_movie_eyetracking-main/movs/MomentsInTime/groups/group2/final_videos/2_S_R_yt-vY49oIv_dWg_73.mp4	90.34053475002293	1.014003666001372
17	77.89249020803254	movie	1		236	15.0	2.0	/Users/shufanzhang/Documents/PhD/Arrow_of_time/hcp_movie_eyetracking-main/movs/MomentsInTime/groups/group2/final_videos/2_S_R_yt-vY49oIv_dWg_73.mp4	91.3545384160243	1.99396470899228
17	79.88645491702482	fix_post	2		120	15.0	2.0	/Users/shufanzhang/Documents/PhD/Arrow_of_time/hcp_movie_eyetracking-main/movs/MomentsInTime/groups/group2/final_videos/2_S_R_yt-vY49oIv_dWg_73.mp4	93.34850312501658	1.0069081250112504
18	80.89336304203607	fix_pre	0		119	16.0	2.0	/Users/shufanzhang/Documents/PhD/Arrow_of_time/hcp_movie_eyetracking-main/movs/MomentsInTime/groups/group2/final_videos/2_S_R_yt-9NV8zv2Sdq4_30.mp4	94.35541125002783	1.0003346659941599
18	81.89369770803023	movie	1		238	16.0	2.0	/Users/shufanzhang/Documents/PhD/Arrow_of_time/hcp_movie_eyetracking-main/movs/MomentsInTime/groups/group2/final_videos/2_S_R_yt-9NV8zv2Sdq4_30.mp4	95.35574591602199	1.9844508749665692
18	83.8781485829968	fix_post	2		121	16.0	2.0	/Users/shufanzhang/Documents/PhD/Arrow_of_time/hcp_movie_eyetracking-main/movs/MomentsInTime/groups/group2/final_videos/2_S_R_yt-9NV8zv2Sdq4_30.mp4	97.34019679098856	1.0289827500237152
19	84.90713133302052	fix_pre	0		118	17.0	2.0	/Users/shufanzhang/Documents/PhD/Arrow_of_time/hcp_movie_eyetracking-main/movs/MomentsInTime/groups/group2/final_videos/1_S_yt-l6WPyKg_3is_154.mp4	98.36917954101227	0.9926025839522481
19	85.89973391697276	movie	1		239	17.0	2.0	/Users/shufanzhang/Documents/PhD/Arrow_of_time/hcp_movie_eyetracking-main/movs/MomentsInTime/groups/group2/final_videos/1_S_yt-l6WPyKg_3is_154.mp4	99.36178212496452	1.989928500028327
19	87.88966241700109	fix_post	2		120	17.0	2.0	/Users/shufanzhang/Documents/PhD/Arrow_of_time/hcp_movie_eyetracking-main/movs/MomentsInTime/groups/group2/final_videos/1_S_yt-l6WPyKg_3is_154.mp4	101.35171062499285	1.0004210830666125
20	88.8900835000677	fix_pre	0		120	18.0	2.0	/Users/shufanzhang/Documents/PhD/Arrow_of_time/hcp_movie_eyetracking-main/movs/MomentsInTime/groups/group2/final_videos/1_S_R_yt_R-SwXr0ScjD9o_20.mp4	102.35213170805946	0.996226416900754
20	89.88630991696846	movie	1		236	18.0	2.0	/Users/shufanzhang/Documents/PhD/Arrow_of_time/hcp_movie_eyetracking-main/movs/MomentsInTime/groups/group2/final_videos/1_S_R_yt_R-SwXr0ScjD9o_20.mp4	103.34835812496021	1.9961652910569683
20	91.88247520802543	fix_post	2		120	18.0	2.0	/Users/shufanzhang/Documents/PhD/Arrow_of_time/hcp_movie_eyetracking-main/movs/MomentsInTime/groups/group2/final_videos/1_S_R_yt_R-SwXr0ScjD9o_20.mp4	105.34452341601718	1.0091767499689013
21	92.89165195799433	fix_pre	0		119	19.0	2.0	/Users/shufanzhang/Documents/PhD/Arrow_of_time/hcp_movie_eyetracking-main/movs/MomentsInTime/groups/group2/final_videos/1_S_-vPHq-7BJ70_15.mp4	106.35370016598608	1.0032009590649977
21	93.89485291705932	movie	1		240	19.0	2.0	/Users/shufanzhang/Documents/PhD/Arrow_of_time/hcp_movie_eyetracking-main/movs/MomentsInTime/groups/group2/final_videos/1_S_-vPHq-7BJ70_15.mp4	107.35690112505108	1.987620082916692
21	95.88247299997602	fix_post	2		118	19.0	2.0	/Users/shufanzhang/Documents/PhD/Arrow_of_time/hcp_movie_eyetracking-main/movs/MomentsInTime/groups/group2/final_videos/1_S_-vPHq-7BJ70_15.mp4	109.34452120796777	1.0015355830546468
22	96.88400858303066	fix_pre	0		119	20.0	2.0	/Users/shufanzhang/Documents/PhD/Arrow_of_time/hcp_movie_eyetracking-main/movs/MomentsInTime/groups/group2/final_videos/2_S_yt-savE5_jePKQ_25.mp4	110.34605679102242	1.0106380840297788
22	97.89464666706044	movie	1		206	20.0	2.0	/Users/shufanzhang/Documents/PhD/Arrow_of_time/hcp_movie_eyetracking-main/movs/MomentsInTime/groups/group2/final_videos/2_S_yt-savE5_jePKQ_25.mp4	111.3566948750522	1.994526540976949
22	99.88917320803739	fix_post	2		118	20.0	2.0	/Users/shufanzhang/Documents/PhD/Arrow_of_time/hcp_movie_eyetracking-main/movs/MomentsInTime/groups/group2/final_videos/2_S_yt-savE5_jePKQ_25.mp4	113.35122141602915	1.0003031670348719
23	100.88947637507226	fix_pre	0		118	21.0	2.0	/Users/shufanzhang/Documents/PhD/Arrow_of_time/hcp_movie_eyetracking-main/movs/MomentsInTime/groups/group2/final_videos/1_S_R_yt-0MB_IYX1fgo_44.mp4	114.35152458306402	1.019755957997404
23	101.90923233306967	movie	1		228	21.0	2.0	/Users/shufanzhang/Documents/PhD/Arrow_of_time/hcp_movie_eyetracking-main/movs/MomentsInTime/groups/group2/final_videos/1_S_R_yt-0MB_IYX1fgo_44.mp4	115.37128054106142	1.9786135419271886
23	103.88784587499686	fix_post	2		119	21.0	2.0	/Users/shufanzhang/Documents/PhD/Arrow_of_time/hcp_movie_eyetracking-main/movs/MomentsInTime/groups/group2/final_videos/1_S_R_yt-0MB_IYX1fgo_44.mp4	117.34989408298861	1.00188712507952
24	104.88973300007638	fix_pre	0		118	22.0	2.0	/Users/shufanzhang/Documents/PhD/Arrow_of_time/hcp_movie_eyetracking-main/movs/MomentsInTime/groups/group2/final_videos/1_S_R_yt-BLmwmX-mni8_1030.mp4	118.35178120806813	0.9987983329920098
24	105.88853133306839	movie	1		238	22.0	2.0	/Users/shufanzhang/Documents/PhD/Arrow_of_time/hcp_movie_eyetracking-main/movs/MomentsInTime/groups/group2/final_videos/1_S_R_yt-BLmwmX-mni8_1030.mp4	119.35057954106014	1.9893016249407083
24	107.8778329580091	fix_post	2		120	22.0	2.0	/Users/shufanzhang/Documents/PhD/Arrow_of_time/hcp_movie_eyetracking-main/movs/MomentsInTime/groups/group2/final_videos/1_S_R_yt-BLmwmX-mni8_1030.mp4	121.33988116600085	1.0060335419839248
25	108.88386649999302	fix_pre	0		117	23.0	2.0	/Users/shufanzhang/Documents/PhD/Arrow_of_time/hcp_movie_eyetracking-main/movs/MomentsInTime/groups/group2/final_videos/1_S_yt-Z8kKaMQMTdM_173.mp4	122.34591470798478	1.0232367920689285
25	109.90710329206195	movie	1		229	23.0	2.0	/Users/shufanzhang/Documents/PhD/Arrow_of_time/hcp_movie_eyetracking-main/movs/MomentsInTime/groups/group2/final_videos/1_S_yt-Z8kKaMQMTdM_173.mp4	123.3691515000537	1.9706467499490827
25	111.87775004201103	fix_post	2		121	23.0	2.0	/Users/shufanzhang/Documents/PhD/Arrow_of_time/hcp_movie_eyetracking-main/movs/MomentsInTime/groups/group2/final_videos/1_S_yt-Z8kKaMQMTdM_173.mp4	125.33979825000279	1.0178955000592396
26	112.89564554207027	fix_pre	0		119	24.0	2.0	/Users/shufanzhang/Documents/PhD/Arrow_of_time/hcp_movie_eyetracking-main/movs/MomentsInTime/groups/group2/final_videos/2_S_m-aeoYPMqfg_185.mp4	126.35769375006203	1.0103198329452425
26	113.90596537501551	movie	1		238	24.0	2.0	/Users/shufanzhang/Documents/PhD/Arrow_of_time/hcp_movie_eyetracking-main/movs/MomentsInTime/groups/group2/final_videos/2_S_m-aeoYPMqfg_185.mp4	127.36801358300727	1.9751436250517145
26	115.88110900006723	fix_post	2		119	24.0	2.0	/Users/shufanzhang/Documents/PhD/Arrow_of_time/hcp_movie_eyetracking-main/movs/MomentsInTime/groups/group2/final_videos/2_S_m-aeoYPMqfg_185.mp4	129.34315720805898	0.9998659580014646
27	116.88097495806869	fix_pre	0		117	25.0	2.0	/Users/shufanzhang/Documents/PhD/Arrow_of_time/hcp_movie_eyetracking-main/movs/MomentsInTime/groups/group2/final_videos/2_S_yt-Z4W6l0eZza4_6.mp4	130.34302316606045	1.0110564169008285
27	117.89203137496952	movie	1		230	25.0	2.0	/Users/shufanzhang/Documents/PhD/Arrow_of_time/hcp_movie_eyetracking-main/movs/MomentsInTime/groups/group2/final_videos/2_S_yt-Z4W6l0eZza4_6.mp4	131.35407958296128	1.9921640830580145
27	119.88419545802753	fix_post	2		115	25.0	2.0	/Users/shufanzhang/Documents/PhD/Arrow_of_time/hcp_movie_eyetracking-main/movs/MomentsInTime/groups/group2/final_videos/2_S_yt-Z4W6l0eZza4_6.mp4	133.3462436660193	1.0010566250421107
28	120.88525208306964	fix_pre	0		119	26.0	2.0	/Users/shufanzhang/Documents/PhD/Arrow_of_time/hcp_movie_eyetracking-main/movs/MomentsInTime/groups/group2/final_videos/2_S_R_yt-Co4dzHwupRM_18.mp4	134.3473002910614	1.0221460419707
28	121.90739812504034	movie	1		235	26.0	2.0	/Users/shufanzhang/Documents/PhD/Arrow_of_time/hcp_movie_eyetracking-main/movs/MomentsInTime/groups/group2/final_videos/2_S_R_yt-Co4dzHwupRM_18.mp4	135.3694463330321	1.98192570800893
28	123.88932383304927	fix_post	2		118	26.0	2.0	/Users/shufanzhang/Documents/PhD/Arrow_of_time/hcp_movie_eyetracking-main/movs/MomentsInTime/groups/group2/final_videos/2_S_R_yt-Co4dzHwupRM_18.mp4	137.35137204104103	1.0020966249285266
29	124.8914204579778	fix_pre	0		114	27.0	2.0	/Users/shufanzhang/Documents/PhD/Arrow_of_time/hcp_movie_eyetracking-main/movs/MomentsInTime/groups/group2/final_videos/2_S_R_yt-MNo__ov96eI_22.mp4	138.35346866596956	1.003691375022754
29	125.89511183300056	movie	1		230	27.0	2.0	/Users/shufanzhang/Documents/PhD/Arrow_of_time/hcp_movie_eyetracking-main/movs/MomentsInTime/groups/group2/final_videos/2_S_R_yt-MNo__ov96eI_22.mp4	139.3571600409923	1.9917027089977637
29	127.88681454199832	fix_post	2		117	27.0	2.0	/Users/shufanzhang/Documents/PhD/Arrow_of_time/hcp_movie_eyetracking-main/movs/MomentsInTime/groups/group2/final_videos/2_S_R_yt-MNo__ov96eI_22.mp4	141.34886274999008	0.9915910830022767
30	128.8784056250006	fix_pre	0		119	28.0	2.0	/Users/shufanzhang/Documents/PhD/Arrow_of_time/hcp_movie_eyetracking-main/movs/MomentsInTime/groups/group2/final_videos/1_S_yt-wnQFgNEnHUI_109.mp4	142.34045383299235	1.0208620419725776
30	129.89926766697317	movie	1		237	28.0	2.0	/Users/shufanzhang/Documents/PhD/Arrow_of_time/hcp_movie_eyetracking-main/movs/MomentsInTime/groups/group2/final_videos/1_S_yt-wnQFgNEnHUI_109.mp4	143.36131587496493	1.979073416092433
30	131.8783410830656	fix_post	2		120	28.0	2.0	/Users/shufanzhang/Documents/PhD/Arrow_of_time/hcp_movie_eyetracking-main/movs/MomentsInTime/groups/group2/final_videos/1_S_yt-wnQFgNEnHUI_109.mp4	145.34038929105736	1.003293874906376
31	132.88163495797198	fix_pre	0		118	29.0	2.0	/Users/shufanzhang/Documents/PhD/Arrow_of_time/hcp_movie_eyetracking-main/movs/MomentsInTime/groups/group2/final_videos/1_S_R_yt-5rC42egLl5E_387.mp4	146.34368316596374	1.0142124590929598
31	133.89584741706494	movie	1		241	29.0	2.0	/Users/shufanzhang/Documents/PhD/Arrow_of_time/hcp_movie_eyetracking-main/movs/MomentsInTime/groups/group2/final_videos/1_S_R_yt-5rC42egLl5E_387.mp4	147.3578956250567	1.9909211249323562
31	135.8867685419973	fix_post	2		118	29.0	2.0	/Users/shufanzhang/Documents/PhD/Arrow_of_time/hcp_movie_eyetracking-main/movs/MomentsInTime/groups/group2/final_videos/1_S_R_yt-5rC42egLl5E_387.mp4	149.34881674998906	0.9923120409948751
32	136.87908058299217	fix_pre	0		120	30.0	2.0	/Users/shufanzhang/Documents/PhD/Arrow_of_time/hcp_movie_eyetracking-main/movs/MomentsInTime/groups/group2/final_videos/1_S_R_yt-fEIplXEqgCc_14.mp4	150.34112879098393	1.0149405840784311
32	137.8940211670706	movie	1		239	30.0	2.0	/Users/shufanzhang/Documents/PhD/Arrow_of_time/hcp_movie_eyetracking-main/movs/MomentsInTime/groups/group2/final_videos/1_S_R_yt-fEIplXEqgCc_14.mp4	151.35606937506236	1.984633915941231
32	139.87865508301184	fix_post	2		119	30.0	2.0	/Users/shufanzhang/Documents/PhD/Arrow_of_time/hcp_movie_eyetracking-main/movs/MomentsInTime/groups/group2/final_videos/1_S_R_yt-fEIplXEqgCc_14.mp4	153.3407032910036	1.001946417032741
33	140.88060150004458	fix_pre	0		119	31.0	2.0	/Users/shufanzhang/Documents/PhD/Arrow_of_time/hcp_movie_eyetracking-main/movs/MomentsInTime/groups/group2/final_videos/1_S_yt-J8E_BpSJMpk_5.mp4	154.34264970803633	1.0158042919356376
33	141.89640579198021	movie	1		238	31.0	2.0	/Users/shufanzhang/Documents/PhD/Arrow_of_time/hcp_movie_eyetracking-main/movs/MomentsInTime/groups/group2/final_videos/1_S_yt-J8E_BpSJMpk_5.mp4	155.35845399997197	1.9818043330451474
33	143.87821012502536	fix_post	2		120	31.0	2.0	/Users/shufanzhang/Documents/PhD/Arrow_of_time/hcp_movie_eyetracking-main/movs/MomentsInTime/groups/group2/final_videos/1_S_yt-J8E_BpSJMpk_5.mp4	157.34025833301712	1.000585624948144
34	144.8787957499735	fix_pre	0		120	32.0	2.0	/Users/shufanzhang/Documents/PhD/Arrow_of_time/hcp_movie_eyetracking-main/movs/MomentsInTime/groups/group2/final_videos/2_S_R_yt-IxUQZ_1JuFs_35.mp4	158.34084395796526	1.0239904170157388
34	145.90278616698924	movie	1		238	32.0	2.0	/Users/shufanzhang/Documents/PhD/Arrow_of_time/hcp_movie_eyetracking-main/movs/MomentsInTime/groups/group2/final_videos/2_S_R_yt-IxUQZ_1JuFs_35.mp4	159.364834374981	1.9753975829808041
34	147.87818374997005	fix_post	2		120	32.0	2.0	/Users/shufanzhang/Documents/PhD/Arrow_of_time/hcp_movie_eyetracking-main/movs/MomentsInTime/groups/group2/final_videos/2_S_R_yt-IxUQZ_1JuFs_35.mp4	161.3402319579618	1.0092016670387238
35	148.88738541700877	fix_pre	0		120	33.0	2.0	/Users/shufanzhang/Documents/PhD/Arrow_of_time/hcp_movie_eyetracking-main/movs/MomentsInTime/groups/group2/final_videos/1_S_R_yt-O_6CyqHeJig_132.mp4	162.34943362500053	1.0037192499730736
35	149.89110466698185	movie	1		241	33.0	2.0	/Users/shufanzhang/Documents/PhD/Arrow_of_time/hcp_movie_eyetracking-main/movs/MomentsInTime/groups/group2/final_videos/1_S_R_yt-O_6CyqHeJig_132.mp4	163.3531528749736	1.9970856250729412
35	151.8881902920548	fix_post	2		120	33.0	2.0	/Users/shufanzhang/Documents/PhD/Arrow_of_time/hcp_movie_eyetracking-main/movs/MomentsInTime/groups/group2/final_videos/1_S_R_yt-O_6CyqHeJig_132.mp4	165.35023850004654	1.0030339999357238
36	152.8912242919905	fix_pre	0		119	34.0	2.0	/Users/shufanzhang/Documents/PhD/Arrow_of_time/hcp_movie_eyetracking-main/movs/MomentsInTime/groups/group2/final_videos/1_S_yt-ET5YTz1laWo_108.mp4	166.35327249998227	1.0069067910080776
36	153.8981310829986	movie	1		239	34.0	2.0	/Users/shufanzhang/Documents/PhD/Arrow_of_time/hcp_movie_eyetracking-main/movs/MomentsInTime/groups/group2/final_videos/1_S_yt-ET5YTz1laWo_108.mp4	167.36017929099035	1.9801274170167744
36	155.87825850001536	fix_post	2		120	34.0	2.0	/Users/shufanzhang/Documents/PhD/Arrow_of_time/hcp_movie_eyetracking-main/movs/MomentsInTime/groups/group2/final_videos/1_S_yt-ET5YTz1laWo_108.mp4	169.34030670800712	1.00271316699218
37	156.88097166700754	fix_pre	0		120	35.0	2.0	/Users/shufanzhang/Documents/PhD/Arrow_of_time/hcp_movie_eyetracking-main/movs/MomentsInTime/groups/group2/final_videos/2_S_X-D3lUv-atE_376.mp4	170.3430198749993	1.008036082959734
37	157.88900774996728	movie	1		240	35.0	2.0	/Users/shufanzhang/Documents/PhD/Arrow_of_time/hcp_movie_eyetracking-main/movs/MomentsInTime/groups/group2/final_videos/2_S_X-D3lUv-atE_376.mp4	171.35105595795903	2.000537083018571
37	159.88954483298585	fix_post	2		120	35.0	2.0	/Users/shufanzhang/Documents/PhD/Arrow_of_time/hcp_movie_eyetracking-main/movs/MomentsInTime/groups/group2/final_videos/2_S_X-D3lUv-atE_376.mp4	173.3515930409776	0.9987131670350209
38	160.88825800002087	fix_pre	0		119	36.0	2.0	/Users/shufanzhang/Documents/PhD/Arrow_of_time/hcp_movie_eyetracking-main/movs/MomentsInTime/groups/group2/final_videos/2_S_flickr-clarkstonscamp-4863427159_1.mp4	174.35030620801263	1.011212500045076
38	161.89947050006595	movie	1		239	36.0	2.0	/Users/shufanzhang/Documents/PhD/Arrow_of_time/hcp_movie_eyetracking-main/movs/MomentsInTime/groups/group2/final_videos/2_S_flickr-clarkstonscamp-4863427159_1.mp4	175.3615187080577	1.9786729579791427
38	163.8781434580451	fix_post	2		120	36.0	2.0	/Users/shufanzhang/Documents/PhD/Arrow_of_time/hcp_movie_eyetracking-main/movs/MomentsInTime/groups/group2/final_videos/2_S_flickr-clarkstonscamp-4863427159_1.mp4	177.34019166603684	1.0139311669627205
39	164.8920746250078	fix_pre	0		120	37.0	2.0	/Users/shufanzhang/Documents/PhD/Arrow_of_time/hcp_movie_eyetracking-main/movs/MomentsInTime/groups/group2/final_videos/2_S_yt-dLTag3L1w94_566.mp4	178.35412283299956	1.0067163329804316
39	165.89879095798824	movie	1		239	37.0	2.0	/Users/shufanzhang/Documents/PhD/Arrow_of_time/hcp_movie_eyetracking-main/movs/MomentsInTime/groups/group2/final_videos/2_S_yt-dLTag3L1w94_566.mp4	179.36083916598	1.9792263340204954
39	167.87801729200874	fix_post	2		120	37.0	2.0	/Users/shufanzhang/Documents/PhD/Arrow_of_time/hcp_movie_eyetracking-main/movs/MomentsInTime/groups/group2/final_videos/2_S_yt-dLTag3L1w94_566.mp4	181.3400655000005	1.0057243329938501
40	168.88374162500259	fix_pre	0		120	38.0	2.0	/Users/shufanzhang/Documents/PhD/Arrow_of_time/hcp_movie_eyetracking-main/movs/MomentsInTime/groups/group2/final_videos/2_S_R_yt-xgqx7tH92-c_6.mp4	182.34578983299434	1.0063062920235097
40	169.8900479170261	movie	1		240	38.0	2.0	/Users/shufanzhang/Documents/PhD/Arrow_of_time/hcp_movie_eyetracking-main/movs/MomentsInTime/groups/group2/final_videos/2_S_R_yt-xgqx7tH92-c_6.mp4	183.35209612501785	1.996809707954526
40	171.88685762498062	fix_post	2		118	38.0	2.0	/Users/shufanzhang/Documents/PhD/Arrow_of_time/hcp_movie_eyetracking-main/movs/MomentsInTime/groups/group2/final_videos/2_S_R_yt-xgqx7tH92-c_6.mp4	185.34890583297238	0.9981506250333041
41	172.88500825001393	fix_pre	0		120	39.0	2.0	/Users/shufanzhang/Documents/PhD/Arrow_of_time/hcp_movie_eyetracking-main/movs/MomentsInTime/groups/group2/final_videos/2_S_R_yt-YLcmfyfIokU_64.mp4	186.34705645800568	1.0063916250364855
41	173.8913998750504	movie	1		240	39.0	2.0	/Users/shufanzhang/Documents/PhD/Arrow_of_time/hcp_movie_eyetracking-main/movs/MomentsInTime/groups/group2/final_videos/2_S_R_yt-YLcmfyfIokU_64.mp4	187.35344808304217	1.9996472499333322
41	175.89104712498374	fix_post	2		119	39.0	2.0	/Users/shufanzhang/Documents/PhD/Arrow_of_time/hcp_movie_eyetracking-main/movs/MomentsInTime/groups/group2/final_videos/2_S_R_yt-YLcmfyfIokU_64.mp4	189.3530953329755	0.989247833029367
42	176.8802949580131	fix_pre	0		120	40.0	2.0	/Users/shufanzhang/Documents/PhD/Arrow_of_time/hcp_movie_eyetracking-main/movs/MomentsInTime/groups/group2/final_videos/2_S_R_yt-OEY9O2MglQM_7.mp4	190.34234316600487	1.0111582920653746
42	177.89145325007848	movie	1		241	40.0	2.0	/Users/shufanzhang/Documents/PhD/Arrow_of_time/hcp_movie_eyetracking-main/movs/MomentsInTime/groups/group2/final_videos/2_S_R_yt-OEY9O2MglQM_7.mp4	191.35350145807024	1.9977204169845209
42	179.889173667063	fix_post	2		119	40.0	2.0	/Users/shufanzhang/Documents/PhD/Arrow_of_time/hcp_movie_eyetracking-main/movs/MomentsInTime/groups/group2/final_videos/2_S_R_yt-OEY9O2MglQM_7.mp4	193.35122187505476	1.0020977499661967
43	180.8912714170292	fix_pre	0		119	41.0	2.0	/Users/shufanzhang/Documents/PhD/Arrow_of_time/hcp_movie_eyetracking-main/movs/MomentsInTime/groups/group2/final_videos/1_S_R_yt-IXMtF998XFY_547.mp4	194.35331962502096	0.9973512080032378
43	181.88862262503244	movie	1		241	41.0	2.0	/Users/shufanzhang/Documents/PhD/Arrow_of_time/hcp_movie_eyetracking-main/movs/MomentsInTime/groups/group2/final_videos/1_S_R_yt-IXMtF998XFY_547.mp4	195.3506708330242	1.9977348749525845
43	183.88635749998502	fix_post	2		120	41.0	2.0	/Users/shufanzhang/Documents/PhD/Arrow_of_time/hcp_movie_eyetracking-main/movs/MomentsInTime/groups/group2/final_videos/1_S_R_yt-IXMtF998XFY_547.mp4	197.34840570797678	1.0017446250421926
44	184.88810212502722	fix_pre	0		119	42.0	2.0	/Users/shufanzhang/Documents/PhD/Arrow_of_time/hcp_movie_eyetracking-main/movs/MomentsInTime/groups/group2/final_videos/2_S_yt-2LCHVTVwJ5E_235.mp4	198.35015033301897	1.0105636670487002
44	185.89866579207592	movie	1		238	42.0	2.0	/Users/shufanzhang/Documents/PhD/Arrow_of_time/hcp_movie_eyetracking-main/movs/MomentsInTime/groups/group2/final_videos/2_S_yt-2LCHVTVwJ5E_235.mp4	199.36071400006767	1.9880058330018073
44	187.88667162507772	fix_post	2		118	42.0	2.0	/Users/shufanzhang/Documents/PhD/Arrow_of_time/hcp_movie_eyetracking-main/movs/MomentsInTime/groups/group2/final_videos/2_S_yt-2LCHVTVwJ5E_235.mp4	201.34871983306948	1.0045912499772385
45	188.89126287505496	fix_pre	0		119	43.0	2.0	/Users/shufanzhang/Documents/PhD/Arrow_of_time/hcp_movie_eyetracking-main/movs/MomentsInTime/groups/group2/final_videos/2_S_R_gX_VbZnZO0k_13.mp4	202.35331108304672	1.007898874930106
45	189.89916174998507	movie	1		231	43.0	2.0	/Users/shufanzhang/Documents/PhD/Arrow_of_time/hcp_movie_eyetracking-main/movs/MomentsInTime/groups/group2/final_videos/2_S_R_gX_VbZnZO0k_13.mp4	203.36120995797683	1.9843763330718502
45	191.88353808305692	fix_post	2		114	43.0	2.0	/Users/shufanzhang/Documents/PhD/Arrow_of_time/hcp_movie_eyetracking-main/movs/MomentsInTime/groups/group2/final_videos/2_S_R_gX_VbZnZO0k_13.mp4	205.34558629104868	1.0122292089508846
46	192.8957672920078	fix_pre	0		119	44.0	2.0	/Users/shufanzhang/Documents/PhD/Arrow_of_time/hcp_movie_eyetracking-main/movs/MomentsInTime/groups/group2/final_videos/1_S_R_yt-tEzCpMrjOHs_24.mp4	206.35781549999956	1.010922500048764
46	193.90668979205657	movie	1		231	44.0	2.0	/Users/shufanzhang/Documents/PhD/Arrow_of_time/hcp_movie_eyetracking-main/movs/MomentsInTime/groups/group2/final_videos/1_S_R_yt-tEzCpMrjOHs_24.mp4	207.36873800004832	1.9823239999823272
46	195.8890137920389	fix_post	2		119	44.0	2.0	/Users/shufanzhang/Documents/PhD/Arrow_of_time/hcp_movie_eyetracking-main/movs/MomentsInTime/groups/group2/final_videos/1_S_R_yt-tEzCpMrjOHs_24.mp4	209.35106200003065	0.9994410410290584
47	196.88845483306795	fix_pre	0		119	45.0	2.0	/Users/shufanzhang/Documents/PhD/Arrow_of_time/hcp_movie_eyetracking-main/movs/MomentsInTime/groups/group2/final_videos/1_S_R_yt-1XfKrSmjtl4_443.mp4	210.3505030410597	0.9956689169630408
47	197.884123750031	movie	1		227	45.0	2.0	/Users/shufanzhang/Documents/PhD/Arrow_of_time/hcp_movie_eyetracking-main/movs/MomentsInTime/groups/group2/final_videos/1_S_R_yt-1XfKrSmjtl4_443.mp4	211.34617195802275	2.0053161249961704
47	199.88943987502716	fix_post	2		118	45.0	2.0	/Users/shufanzhang/Documents/PhD/Arrow_of_time/hcp_movie_eyetracking-main/movs/MomentsInTime/groups/group2/final_videos/1_S_R_yt-1XfKrSmjtl4_443.mp4	213.35148808301892	0.9935068750055507
48	200.88294675003272	fix_pre	0		119	46.0	2.0	/Users/shufanzhang/Documents/PhD/Arrow_of_time/hcp_movie_eyetracking-main/movs/MomentsInTime/groups/group2/final_videos/2_S_yt-roThCERxVCs_133.mp4	214.34499495802447	1.0180209999671206
48	201.90096774999984	movie	1		238	46.0	2.0	/Users/shufanzhang/Documents/PhD/Arrow_of_time/hcp_movie_eyetracking-main/movs/MomentsInTime/groups/group2/final_videos/2_S_yt-roThCERxVCs_133.mp4	215.3630159579916	1.9769440420204774
48	203.8779117920203	fix_post	2		120	46.0	2.0	/Users/shufanzhang/Documents/PhD/Arrow_of_time/hcp_movie_eyetracking-main/movs/MomentsInTime/groups/group2/final_videos/2_S_yt-roThCERxVCs_133.mp4	217.33996000001207	1.0182613750221208
49	204.89617316704243	fix_pre	0		115	47.0	2.0	/Users/shufanzhang/Documents/PhD/Arrow_of_time/hcp_movie_eyetracking-main/movs/MomentsInTime/groups/group2/final_videos/2_S_yt-lgRDsLvpqNY_11.mp4	218.3582213750342	0.9934415409807116
49	205.88961470802315	movie	1		156	47.0	2.0	/Users/shufanzhang/Documents/PhD/Arrow_of_time/hcp_movie_eyetracking-main/movs/MomentsInTime/groups/group2/final_videos/2_S_yt-lgRDsLvpqNY_11.mp4	219.3516629160149	1.4030764589551836
