trial_nr	onset	event_type	phase	response	nr_frames	movie_index	movie_duration	movie_file	onset_abs	duration
0	0.03637350001372397	stim	0		116				17.811090292059816	1.0181810000212863
0	1.0492300830082968	response	0	space					18.82394687505439	
1	1.0545545000350103	stim	0		50				18.829271292081103	0.4773978329030797
1	1.5224353750236332	pulse	0	t					19.297152167069726	
1	1.53195233293809	stim	1		43				19.306669124984182	0.4036195420194417
2	1.9355718749575317	fix_pre	0		114	0.0	3.0	/Users/shufanzhang/Documents/PhD/Arrow_of_time/hcp_movie_eyetracking-main/movs/MomentsInTime/groups/group1/final_videos2/1_S_yt-c5_SFS4aaJI_1102.mp4	19.710288667003624	1.0095842920709401
2	2.945156167028472	movie	1		358	0.0	3.0	/Users/shufanzhang/Documents/PhD/Arrow_of_time/hcp_movie_eyetracking-main/movs/MomentsInTime/groups/group1/final_videos2/1_S_yt-c5_SFS4aaJI_1102.mp4	20.719872959074564	3.004312999895774
2	5.949469166924246	fix_post	2		116	0.0	3.0	/Users/shufanzhang/Documents/PhD/Arrow_of_time/hcp_movie_eyetracking-main/movs/MomentsInTime/groups/group1/final_videos2/1_S_yt-c5_SFS4aaJI_1102.mp4	23.724185958970338	0.9918456660816446
3	6.94131483300589	fix_pre	0		92	1.0	3.0	/Users/shufanzhang/Documents/PhD/Arrow_of_time/hcp_movie_eyetracking-main/movs/MomentsInTime/groups/group1/final_videos2/1_S_yt-xKteiAi5h7Q_36.mp4	24.716031625051983	1.0042702089995146
3	7.945585042005405	movie	1		313	1.0	3.0	/Users/shufanzhang/Documents/PhD/Arrow_of_time/hcp_movie_eyetracking-main/movs/MomentsInTime/groups/group1/final_videos2/1_S_yt-xKteiAi5h7Q_36.mp4	25.720301834051497	2.9894579160027206
3	10.935042958008125	fix_post	2		119	1.0	3.0	/Users/shufanzhang/Documents/PhD/Arrow_of_time/hcp_movie_eyetracking-main/movs/MomentsInTime/groups/group1/final_videos2/1_S_yt-xKteiAi5h7Q_36.mp4	28.709759750054218	1.0015642090002075
4	11.936607167008333	fix_pre	0		116	2.0	3.0	/Users/shufanzhang/Documents/PhD/Arrow_of_time/hcp_movie_eyetracking-main/movs/MomentsInTime/groups/group1/final_videos2/2_S_R_yt-cILZ_cB3_so_73.mp4	29.711323959054425	1.001106624957174
4	12.937713791965507	movie	1		356	2.0	3.0	/Users/shufanzhang/Documents/PhD/Arrow_of_time/hcp_movie_eyetracking-main/movs/MomentsInTime/groups/group1/final_videos2/2_S_R_yt-cILZ_cB3_so_73.mp4	30.7124305840116	2.997139665996656
4	15.934853457962163	fix_post	2		115	2.0	3.0	/Users/shufanzhang/Documents/PhD/Arrow_of_time/hcp_movie_eyetracking-main/movs/MomentsInTime/groups/group1/final_videos2/2_S_R_yt-cILZ_cB3_so_73.mp4	33.709570250008255	0.9985905840294436
5	16.933444041991606	fix_pre	0		119	3.0	3.0	/Users/shufanzhang/Documents/PhD/Arrow_of_time/hcp_movie_eyetracking-main/movs/MomentsInTime/groups/group1/final_videos2/2_S_wc-q23aBNJMZbnZ_27.mp4	34.7081608340377	1.0296132499352098
5	17.963057291926816	movie	1		343	3.0	3.0	/Users/shufanzhang/Documents/PhD/Arrow_of_time/hcp_movie_eyetracking-main/movs/MomentsInTime/groups/group1/final_videos2/2_S_wc-q23aBNJMZbnZ_27.mp4	35.73777408397291	2.972044249996543
5	20.93510154192336	fix_post	2		120	3.0	3.0	/Users/shufanzhang/Documents/PhD/Arrow_of_time/hcp_movie_eyetracking-main/movs/MomentsInTime/groups/group1/final_videos2/2_S_wc-q23aBNJMZbnZ_27.mp4	38.70981833396945	1.0021582910558209
6	21.93725983297918	fix_pre	0		121	4.0	3.0	/Users/shufanzhang/Documents/PhD/Arrow_of_time/hcp_movie_eyetracking-main/movs/MomentsInTime/groups/group1/final_videos2/1_S_yt-XPRNMelf5Fs_235.mp4	39.71197662502527	1.0119602089980617
6	22.94922004197724	movie	1		355	4.0	3.0	/Users/shufanzhang/Documents/PhD/Arrow_of_time/hcp_movie_eyetracking-main/movs/MomentsInTime/groups/group1/final_videos2/1_S_yt-XPRNMelf5Fs_235.mp4	40.723936834023334	2.9918524579843506
6	25.941072499961592	fix_post	2		118	4.0	3.0	/Users/shufanzhang/Documents/PhD/Arrow_of_time/hcp_movie_eyetracking-main/movs/MomentsInTime/groups/group1/final_videos2/1_S_yt-XPRNMelf5Fs_235.mp4	43.715789292007685	1.003003624966368
7	26.94407612492796	fix_pre	0		120	5.0	3.0	/Users/shufanzhang/Documents/PhD/Arrow_of_time/hcp_movie_eyetracking-main/movs/MomentsInTime/groups/group1/final_videos2/2_S_R_flickr-53807584@N00-5566422012_16.mp4	44.71879291697405	1.009111333056353
7	27.953187457984313	movie	1		356	5.0	3.0	/Users/shufanzhang/Documents/PhD/Arrow_of_time/hcp_movie_eyetracking-main/movs/MomentsInTime/groups/group1/final_videos2/2_S_R_flickr-53807584@N00-5566422012_16.mp4	45.727904250030406	2.987763792043552
7	30.940951250027865	fix_post	2		119	5.0	3.0	/Users/shufanzhang/Documents/PhD/Arrow_of_time/hcp_movie_eyetracking-main/movs/MomentsInTime/groups/group1/final_videos2/2_S_R_flickr-53807584@N00-5566422012_16.mp4	48.71566804207396	1.0096524169202894
8	31.950603666948155	fix_pre	0		115	6.0	3.0	/Users/shufanzhang/Documents/PhD/Arrow_of_time/hcp_movie_eyetracking-main/movs/MomentsInTime/groups/group1/final_videos2/2_S_yt-G40PW6hfb2c_5.mp4	49.72532045899425	0.9905009160283953
8	32.94110458297655	movie	1		360	6.0	3.0	/Users/shufanzhang/Documents/PhD/Arrow_of_time/hcp_movie_eyetracking-main/movs/MomentsInTime/groups/group1/final_videos2/2_S_yt-G40PW6hfb2c_5.mp4	50.71582137502264	3.008210542029701
8	35.94931512500625	fix_post	2		117	6.0	3.0	/Users/shufanzhang/Documents/PhD/Arrow_of_time/hcp_movie_eyetracking-main/movs/MomentsInTime/groups/group1/final_videos2/2_S_yt-G40PW6hfb2c_5.mp4	53.72403191705234	0.9932187920203432
9	36.942533917026594	fix_pre	0		110	7.0	3.0	/Users/shufanzhang/Documents/PhD/Arrow_of_time/hcp_movie_eyetracking-main/movs/MomentsInTime/groups/group1/final_videos2/1_S_R_yt-TNtO8RPd3iE_25.mp4	54.71725070907269	1.0027401659172028
9	37.9452740829438	movie	1		359	7.0	3.0	/Users/shufanzhang/Documents/PhD/Arrow_of_time/hcp_movie_eyetracking-main/movs/MomentsInTime/groups/group1/final_videos2/1_S_R_yt-TNtO8RPd3iE_25.mp4	55.71999087498989	2.999822417041287
9	40.945096499985084	fix_post	2		119	7.0	3.0	/Users/shufanzhang/Documents/PhD/Arrow_of_time/hcp_movie_eyetracking-main/movs/MomentsInTime/groups/group1/final_videos2/1_S_R_yt-TNtO8RPd3iE_25.mp4	58.719813292031176	1.000195667031221
10	41.945292167016305	fix_pre	0		110	8.0	3.0	/Users/shufanzhang/Documents/PhD/Arrow_of_time/hcp_movie_eyetracking-main/movs/MomentsInTime/groups/group1/final_videos2/2_S_R_yt-ol2u_-gd0-o_13.mp4	59.7200089590624	1.005027791019529
10	42.950319958035834	movie	1		357	8.0	3.0	/Users/shufanzhang/Documents/PhD/Arrow_of_time/hcp_movie_eyetracking-main/movs/MomentsInTime/groups/group1/final_videos2/2_S_R_yt-ol2u_-gd0-o_13.mp4	60.72503675008193	2.984874999965541
10	45.935194958001375	fix_post	2		119	8.0	3.0	/Users/shufanzhang/Documents/PhD/Arrow_of_time/hcp_movie_eyetracking-main/movs/MomentsInTime/groups/group1/final_videos2/2_S_R_yt-ol2u_-gd0-o_13.mp4	63.70991175004747	1.0067121669417247
11	46.9419071249431	fix_pre	0		115	9.0	3.0	/Users/shufanzhang/Documents/PhD/Arrow_of_time/hcp_movie_eyetracking-main/movs/MomentsInTime/groups/group1/final_videos2/2_S_yt-83nimFMNhrM_131.mp4	64.71662391698919	0.9939545830711722
11	47.93586170801427	movie	1		358	9.0	3.0	/Users/shufanzhang/Documents/PhD/Arrow_of_time/hcp_movie_eyetracking-main/movs/MomentsInTime/groups/group1/final_videos2/2_S_yt-83nimFMNhrM_131.mp4	65.71057850006036	3.0050431669224054
11	50.94090487493668	fix_post	2		119	9.0	3.0	/Users/shufanzhang/Documents/PhD/Arrow_of_time/hcp_movie_eyetracking-main/movs/MomentsInTime/groups/group1/final_videos2/2_S_yt-83nimFMNhrM_131.mp4	68.71562166698277	0.9952126670395955
12	51.93611754197627	fix_pre	0		116	10.0	3.0	/Users/shufanzhang/Documents/PhD/Arrow_of_time/hcp_movie_eyetracking-main/movs/MomentsInTime/groups/group1/final_videos2/1_S_R_yt-alGXD2Drh_g_19.mp4	69.71083433402237	1.0045460000401363
12	52.94066354201641	movie	1		359	10.0	3.0	/Users/shufanzhang/Documents/PhD/Arrow_of_time/hcp_movie_eyetracking-main/movs/MomentsInTime/groups/group1/final_videos2/1_S_R_yt-alGXD2Drh_g_19.mp4	70.7153803340625	2.994386415928602
12	55.93504995794501	fix_post	2		116	10.0	3.0	/Users/shufanzhang/Documents/PhD/Arrow_of_time/hcp_movie_eyetracking-main/movs/MomentsInTime/groups/group1/final_videos2/1_S_R_yt-alGXD2Drh_g_19.mp4	73.7097667499911	1.0087230839999393
13	56.94377304194495	fix_pre	0		117	11.0	3.0	/Users/shufanzhang/Documents/PhD/Arrow_of_time/hcp_movie_eyetracking-main/movs/MomentsInTime/groups/group1/final_videos2/2_S_yt-f9iXELY0EJ0_344.mp4	74.71848983399104	0.9972504579927772
13	57.94102349993773	movie	1		360	11.0	3.0	/Users/shufanzhang/Documents/PhD/Arrow_of_time/hcp_movie_eyetracking-main/movs/MomentsInTime/groups/group1/final_videos2/2_S_yt-f9iXELY0EJ0_344.mp4	75.71574029198382	3.0081511670723557
13	60.949174667010084	fix_post	2		112	11.0	3.0	/Users/shufanzhang/Documents/PhD/Arrow_of_time/hcp_movie_eyetracking-main/movs/MomentsInTime/groups/group1/final_videos2/2_S_yt-f9iXELY0EJ0_344.mp4	78.72389145905618	1.0017557910177857
14	61.95093045802787	fix_pre	0		80	12.0	3.0	/Users/shufanzhang/Documents/PhD/Arrow_of_time/hcp_movie_eyetracking-main/movs/MomentsInTime/groups/group1/final_videos2/1_S_yt-KLInd-KrK_w_19.mp4	79.72564725007396	0.9980295839486644
14	62.948960041976534	movie	1		355	12.0	3.0	/Users/shufanzhang/Documents/PhD/Arrow_of_time/hcp_movie_eyetracking-main/movs/MomentsInTime/groups/group1/final_videos2/1_S_yt-KLInd-KrK_w_19.mp4	80.72367683402263	2.9905528749804944
14	65.93951291695703	fix_post	2		118	12.0	3.0	/Users/shufanzhang/Documents/PhD/Arrow_of_time/hcp_movie_eyetracking-main/movs/MomentsInTime/groups/group1/final_videos2/1_S_yt-KLInd-KrK_w_19.mp4	83.71422970900312	1.005711083067581
15	66.94522400002461	fix_pre	0		103	13.0	3.0	/Users/shufanzhang/Documents/PhD/Arrow_of_time/hcp_movie_eyetracking-main/movs/MomentsInTime/groups/group1/final_videos2/2_S_R_yt-QxNuo4ojvz4_420.mp4	84.7199407920707	0.9996830419404432
15	67.1947289579548	response	0	escape		13.0	3.0	/Users/shufanzhang/Documents/PhD/Arrow_of_time/hcp_movie_eyetracking-main/movs/MomentsInTime/groups/group1/final_videos2/2_S_R_yt-QxNuo4ojvz4_420.mp4	84.96944575000089	
15	67.94490704196505	movie	1		356	13.0	3.0	/Users/shufanzhang/Documents/PhD/Arrow_of_time/hcp_movie_eyetracking-main/movs/MomentsInTime/groups/group1/final_videos2/2_S_R_yt-QxNuo4ojvz4_420.mp4	85.71962383401114	2.995849333005026
15	70.94075637497008	fix_post	2		120	13.0	3.0	/Users/shufanzhang/Documents/PhD/Arrow_of_time/hcp_movie_eyetracking-main/movs/MomentsInTime/groups/group1/final_videos2/2_S_R_yt-QxNuo4ojvz4_420.mp4	88.71547316701617	1.0002103330334648
16	71.94096670800354	fix_pre	0		120	14.0	3.0	/Users/shufanzhang/Documents/PhD/Arrow_of_time/hcp_movie_eyetracking-main/movs/MomentsInTime/groups/group1/final_videos2/2_S_R_yt-fymgyhmYnMI_557.mp4	89.71568350004964	1.003019709023647
16	72.94398641702719	movie	1		356	14.0	3.0	/Users/shufanzhang/Documents/PhD/Arrow_of_time/hcp_movie_eyetracking-main/movs/MomentsInTime/groups/group1/final_videos2/2_S_R_yt-fymgyhmYnMI_557.mp4	90.71870320907328	2.9909746249904856
16	75.93496104201768	fix_post	2		119	14.0	3.0	/Users/shufanzhang/Documents/PhD/Arrow_of_time/hcp_movie_eyetracking-main/movs/MomentsInTime/groups/group1/final_videos2/2_S_R_yt-fymgyhmYnMI_557.mp4	93.70967783406377	1.002115707960911
17	76.93707674997859	fix_pre	0		118	15.0	3.0	/Users/shufanzhang/Documents/PhD/Arrow_of_time/hcp_movie_eyetracking-main/movs/MomentsInTime/groups/group1/final_videos2/2_S_R_yt-XPRNMelf5Fs_235.mp4	94.71179354202468	1.0293687080265954
17	77.96644545800518	movie	1		354	15.0	3.0	/Users/shufanzhang/Documents/PhD/Arrow_of_time/hcp_movie_eyetracking-main/movs/MomentsInTime/groups/group1/final_videos2/2_S_R_yt-XPRNMelf5Fs_235.mp4	95.74116225005127	2.9783547499682754
17	80.94480020797346	fix_post	2		80	15.0	3.0	/Users/shufanzhang/Documents/PhD/Arrow_of_time/hcp_movie_eyetracking-main/movs/MomentsInTime/groups/group1/final_videos2/2_S_R_yt-XPRNMelf5Fs_235.mp4	98.71951700001955	1.0017330839764327
18	81.94653329194989	fix_pre	0		109	16.0	3.0	/Users/shufanzhang/Documents/PhD/Arrow_of_time/hcp_movie_eyetracking-main/movs/MomentsInTime/groups/group1/final_videos2/2_S_yt-UZ-k4A-eD20_124.mp4	99.72125008399598	1.0036169580416754
18	82.95015024999157	movie	1		357	16.0	3.0	/Users/shufanzhang/Documents/PhD/Arrow_of_time/hcp_movie_eyetracking-main/movs/MomentsInTime/groups/group1/final_videos2/2_S_yt-UZ-k4A-eD20_124.mp4	100.72486704203766	2.990651792031713
18	85.94080204202328	fix_post	2		120	16.0	3.0	/Users/shufanzhang/Documents/PhD/Arrow_of_time/hcp_movie_eyetracking-main/movs/MomentsInTime/groups/group1/final_videos2/2_S_yt-UZ-k4A-eD20_124.mp4	103.71551883406937	1.0088756249751896
19	86.94967766699847	fix_pre	0		119	17.0	3.0	/Users/shufanzhang/Documents/PhD/Arrow_of_time/hcp_movie_eyetracking-main/movs/MomentsInTime/groups/group1/final_videos2/2_S_R_yt-sC9suzTl1Y0_66.mp4	104.72439445904456	0.9925955409416929
19	87.94227320794016	movie	1		355	17.0	3.0	/Users/shufanzhang/Documents/PhD/Arrow_of_time/hcp_movie_eyetracking-main/movs/MomentsInTime/groups/group1/final_videos2/2_S_R_yt-sC9suzTl1Y0_66.mp4	105.71698999998625	3.00275666709058
19	90.94502987503074	fix_post	2		119	17.0	3.0	/Users/shufanzhang/Documents/PhD/Arrow_of_time/hcp_movie_eyetracking-main/movs/MomentsInTime/groups/group1/final_videos2/2_S_R_yt-sC9suzTl1Y0_66.mp4	108.71974666707683	0.9920132079860196
20	91.93704308301676	fix_pre	0		117	18.0	3.0	/Users/shufanzhang/Documents/PhD/Arrow_of_time/hcp_movie_eyetracking-main/movs/MomentsInTime/groups/group1/final_videos2/2_S_R_yt-I9uf7kAccFA_229.mp4	109.71175987506285	1.008121334016323
20	92.94516441703308	movie	1		333	18.0	3.0	/Users/shufanzhang/Documents/PhD/Arrow_of_time/hcp_movie_eyetracking-main/movs/MomentsInTime/groups/group1/final_videos2/2_S_R_yt-I9uf7kAccFA_229.mp4	110.71988120907918	2.9939172079320997
20	95.93908162496518	fix_post	2		115	18.0	3.0	/Users/shufanzhang/Documents/PhD/Arrow_of_time/hcp_movie_eyetracking-main/movs/MomentsInTime/groups/group1/final_videos2/2_S_R_yt-I9uf7kAccFA_229.mp4	113.71379841701128	1.0061069170478731
21	96.94518854201306	fix_pre	0		116	19.0	3.0	/Users/shufanzhang/Documents/PhD/Arrow_of_time/hcp_movie_eyetracking-main/movs/MomentsInTime/groups/group1/final_videos2/1_S_R_yt-c5_SFS4aaJI_1102.mp4	114.71990533405915	0.9907322499202564
21	97.93592079193331	movie	1		348	19.0	3.0	/Users/shufanzhang/Documents/PhD/Arrow_of_time/hcp_movie_eyetracking-main/movs/MomentsInTime/groups/group1/final_videos2/1_S_R_yt-c5_SFS4aaJI_1102.mp4	115.7106375839794	3.0032158750109375
21	100.93913666694425	fix_post	2		118	19.0	3.0	/Users/shufanzhang/Documents/PhD/Arrow_of_time/hcp_movie_eyetracking-main/movs/MomentsInTime/groups/group1/final_videos2/1_S_R_yt-c5_SFS4aaJI_1102.mp4	118.71385345899034	0.9964609160088003
22	101.93559758295305	fix_pre	0		119	20.0	3.0	/Users/shufanzhang/Documents/PhD/Arrow_of_time/hcp_movie_eyetracking-main/movs/MomentsInTime/groups/group1/final_videos2/1_S_R_yt-5rIpe3xc5rQ_18.mp4	119.71031437499914	1.016879584058188
22	102.95247716701124	movie	1		349	20.0	3.0	/Users/shufanzhang/Documents/PhD/Arrow_of_time/hcp_movie_eyetracking-main/movs/MomentsInTime/groups/group1/final_videos2/1_S_R_yt-5rIpe3xc5rQ_18.mp4	120.72719395905733	2.992576332995668
22	105.9450535000069	fix_post	2		118	20.0	3.0	/Users/shufanzhang/Documents/PhD/Arrow_of_time/hcp_movie_eyetracking-main/movs/MomentsInTime/groups/group1/final_videos2/1_S_R_yt-5rIpe3xc5rQ_18.mp4	123.719770292053	0.9880806249566376
23	106.93313412496354	fix_pre	0		120	21.0	3.0	/Users/shufanzhang/Documents/PhD/Arrow_of_time/hcp_movie_eyetracking-main/movs/MomentsInTime/groups/group1/final_videos2/1_S_yt-ObT9gF8E_tU_250.mp4	124.70785091700964	1.0163381249876693
23	107.94947224995121	movie	1		353	21.0	3.0	/Users/shufanzhang/Documents/PhD/Arrow_of_time/hcp_movie_eyetracking-main/movs/MomentsInTime/groups/group1/final_videos2/1_S_yt-ObT9gF8E_tU_250.mp4	125.7241890419973	2.98572795803193
23	110.93520020798314	fix_post	2		119	21.0	3.0	/Users/shufanzhang/Documents/PhD/Arrow_of_time/hcp_movie_eyetracking-main/movs/MomentsInTime/groups/group1/final_videos2/1_S_yt-ObT9gF8E_tU_250.mp4	128.70991700002924	1.0053973339963704
24	111.94059754197951	fix_pre	0		116	22.0	3.0	/Users/shufanzhang/Documents/PhD/Arrow_of_time/hcp_movie_eyetracking-main/movs/MomentsInTime/groups/group1/final_videos2/1_S_yt-fT8CS1nszUE_355.mp4	129.7153143340256	1.0086502910126
24	112.94924783299211	movie	1		355	22.0	3.0	/Users/shufanzhang/Documents/PhD/Arrow_of_time/hcp_movie_eyetracking-main/movs/MomentsInTime/groups/group1/final_videos2/1_S_yt-fT8CS1nszUE_355.mp4	130.7239646250382	2.985760624986142
24	115.93500845797826	fix_post	2		119	22.0	3.0	/Users/shufanzhang/Documents/PhD/Arrow_of_time/hcp_movie_eyetracking-main/movs/MomentsInTime/groups/group1/final_videos2/1_S_yt-fT8CS1nszUE_355.mp4	133.70972525002435	1.0018924169708043
25	116.93690087494906	fix_pre	0		117	23.0	3.0	/Users/shufanzhang/Documents/PhD/Arrow_of_time/hcp_movie_eyetracking-main/movs/MomentsInTime/groups/group1/final_videos2/1_S_R_yt-t-wpKypNysg_27.mp4	134.71161766699515	1.003997458028607
25	117.94089833297767	movie	1		356	23.0	3.0	/Users/shufanzhang/Documents/PhD/Arrow_of_time/hcp_movie_eyetracking-main/movs/MomentsInTime/groups/group1/final_videos2/1_S_R_yt-t-wpKypNysg_27.mp4	135.71561512502376	2.994456792017445
25	120.93535512499511	fix_post	2		120	23.0	3.0	/Users/shufanzhang/Documents/PhD/Arrow_of_time/hcp_movie_eyetracking-main/movs/MomentsInTime/groups/group1/final_videos2/1_S_R_yt-t-wpKypNysg_27.mp4	138.7100719170412	1.0140245000366122
26	121.94937962503172	fix_pre	0		109	24.0	3.0	/Users/shufanzhang/Documents/PhD/Arrow_of_time/hcp_movie_eyetracking-main/movs/MomentsInTime/groups/group1/final_videos2/2_S_yt-DMb7ulzm5DM_20.mp4	139.72409641707782	0.9894992499612272
26	122.93887887499295	movie	1		353	24.0	3.0	/Users/shufanzhang/Documents/PhD/Arrow_of_time/hcp_movie_eyetracking-main/movs/MomentsInTime/groups/group1/final_videos2/2_S_yt-DMb7ulzm5DM_20.mp4	140.71359566703904	3.0101599999470636
26	125.94903887494002	fix_post	2		119	24.0	3.0	/Users/shufanzhang/Documents/PhD/Arrow_of_time/hcp_movie_eyetracking-main/movs/MomentsInTime/groups/group1/final_videos2/2_S_yt-DMb7ulzm5DM_20.mp4	143.7237556669861	0.9870047500589862
27	126.936043624999	fix_pre	0		116	25.0	3.0	/Users/shufanzhang/Documents/PhD/Arrow_of_time/hcp_movie_eyetracking-main/movs/MomentsInTime/groups/group1/final_videos2/1_S_R_yt-QxNuo4ojvz4_420.mp4	144.7107604170451	1.0039347079582512
27	127.93997833295725	movie	1		344	25.0	3.0	/Users/shufanzhang/Documents/PhD/Arrow_of_time/hcp_movie_eyetracking-main/movs/MomentsInTime/groups/group1/final_videos2/1_S_R_yt-QxNuo4ojvz4_420.mp4	145.71469512500335	3.0007554170442745
27	130.94073375000153	fix_post	2		120	25.0	3.0	/Users/shufanzhang/Documents/PhD/Arrow_of_time/hcp_movie_eyetracking-main/movs/MomentsInTime/groups/group1/final_videos2/1_S_R_yt-QxNuo4ojvz4_420.mp4	148.71545054204762	0.994470875011757
28	131.93520462501328	fix_pre	0		115	26.0	3.0	/Users/shufanzhang/Documents/PhD/Arrow_of_time/hcp_movie_eyetracking-main/movs/MomentsInTime/groups/group1/final_videos2/1_S_R_yt-gOoDjhfSPj0_162.mp4	149.70992141705938	1.0142075419425964
28	132.94941216695588	movie	1		349	26.0	3.0	/Users/shufanzhang/Documents/PhD/Arrow_of_time/hcp_movie_eyetracking-main/movs/MomentsInTime/groups/group1/final_videos2/1_S_R_yt-gOoDjhfSPj0_162.mp4	150.72412895900197	2.9912976659834385
28	135.94070983293932	fix_post	2		119	26.0	3.0	/Users/shufanzhang/Documents/PhD/Arrow_of_time/hcp_movie_eyetracking-main/movs/MomentsInTime/groups/group1/final_videos2/1_S_R_yt-gOoDjhfSPj0_162.mp4	153.7154266249854	0.9991461670724675
29	136.9398560000118	fix_pre	0		112	27.0	3.0	/Users/shufanzhang/Documents/PhD/Arrow_of_time/hcp_movie_eyetracking-main/movs/MomentsInTime/groups/group1/final_videos2/2_S_yt-isJga8ec5UM_32.mp4	154.71457279205788	1.0193764999276027
29	137.9592324999394	movie	1		357	27.0	3.0	/Users/shufanzhang/Documents/PhD/Arrow_of_time/hcp_movie_eyetracking-main/movs/MomentsInTime/groups/group1/final_videos2/2_S_yt-isJga8ec5UM_32.mp4	155.73394929198548	2.9814600420650095
29	140.9406925420044	fix_post	2		119	27.0	3.0	/Users/shufanzhang/Documents/PhD/Arrow_of_time/hcp_movie_eyetracking-main/movs/MomentsInTime/groups/group1/final_videos2/2_S_yt-isJga8ec5UM_32.mp4	158.7154093340505	1.0088409580057487
30	141.94953350001015	fix_pre	0		117	28.0	3.0	/Users/shufanzhang/Documents/PhD/Arrow_of_time/hcp_movie_eyetracking-main/movs/MomentsInTime/groups/group1/final_videos2/1_S_yt-mL7eEdD-PNY_33.mp4	159.72425029205624	1.0031570829451084
30	142.95269058295526	movie	1		357	28.0	3.0	/Users/shufanzhang/Documents/PhD/Arrow_of_time/hcp_movie_eyetracking-main/movs/MomentsInTime/groups/group1/final_videos2/1_S_yt-mL7eEdD-PNY_33.mp4	160.72740737500135	2.9963362920098007
30	145.94902687496506	fix_post	2		116	28.0	3.0	/Users/shufanzhang/Documents/PhD/Arrow_of_time/hcp_movie_eyetracking-main/movs/MomentsInTime/groups/group1/final_videos2/1_S_yt-mL7eEdD-PNY_33.mp4	163.72374366701115	1.0009906250052154
31	146.95001749997027	fix_pre	0		117	29.0	3.0	/Users/shufanzhang/Documents/PhD/Arrow_of_time/hcp_movie_eyetracking-main/movs/MomentsInTime/groups/group1/final_videos2/1_S_R_flickr-132148318@N02-26685719802_3.mp4	164.72473429201636	0.9898812080500647
31	147.93989870802034	movie	1		352	29.0	3.0	/Users/shufanzhang/Documents/PhD/Arrow_of_time/hcp_movie_eyetracking-main/movs/MomentsInTime/groups/group1/final_videos2/1_S_R_flickr-132148318@N02-26685719802_3.mp4	165.71461550006643	3.0136733750114217
31	150.95357208303176	fix_post	2		114	29.0	3.0	/Users/shufanzhang/Documents/PhD/Arrow_of_time/hcp_movie_eyetracking-main/movs/MomentsInTime/groups/group1/final_videos2/1_S_R_flickr-132148318@N02-26685719802_3.mp4	168.72828887507785	0.9823395839193836
32	151.93591166695114	fix_pre	0		117	30.0	3.0	/Users/shufanzhang/Documents/PhD/Arrow_of_time/hcp_movie_eyetracking-main/movs/MomentsInTime/groups/group1/final_videos2/1_S_R_yt-W00vtWnXgIk_73.mp4	169.71062845899723	1.004858999978751
32	152.9407706669299	movie	1		357	30.0	3.0	/Users/shufanzhang/Documents/PhD/Arrow_of_time/hcp_movie_eyetracking-main/movs/MomentsInTime/groups/group1/final_videos2/1_S_R_yt-W00vtWnXgIk_73.mp4	170.71548745897599	3.0082716250326484
32	155.94904229196254	fix_post	2		117	30.0	3.0	/Users/shufanzhang/Documents/PhD/Arrow_of_time/hcp_movie_eyetracking-main/movs/MomentsInTime/groups/group1/final_videos2/1_S_R_yt-W00vtWnXgIk_73.mp4	173.72375908400863	0.9870288330130279
33	156.93607112497557	fix_pre	0		119	31.0	3.0	/Users/shufanzhang/Documents/PhD/Arrow_of_time/hcp_movie_eyetracking-main/movs/MomentsInTime/groups/group1/final_videos2/1_S_8osH5dThnZY_116.mp4	174.71078791702166	1.004222874995321
33	157.9402939999709	movie	1		358	31.0	3.0	/Users/shufanzhang/Documents/PhD/Arrow_of_time/hcp_movie_eyetracking-main/movs/MomentsInTime/groups/group1/final_videos2/1_S_8osH5dThnZY_116.mp4	175.71501079201698	2.9945475419517606
33	160.93484154192265	fix_post	2		118	31.0	3.0	/Users/shufanzhang/Documents/PhD/Arrow_of_time/hcp_movie_eyetracking-main/movs/MomentsInTime/groups/group1/final_videos2/1_S_8osH5dThnZY_116.mp4	178.70955833396874	1.0004590830067173
34	161.93530062492937	fix_pre	0		118	32.0	3.0	/Users/shufanzhang/Documents/PhD/Arrow_of_time/hcp_movie_eyetracking-main/movs/MomentsInTime/groups/group1/final_videos2/1_S_R_yt-VMUSo8E_Fj8_171.mp4	179.71001741697546	1.0092827921034768
34	162.94458341703285	movie	1		356	32.0	3.0	/Users/shufanzhang/Documents/PhD/Arrow_of_time/hcp_movie_eyetracking-main/movs/MomentsInTime/groups/group1/final_videos2/1_S_R_yt-VMUSo8E_Fj8_171.mp4	180.71930020907894	3.000750874984078
34	165.94533429201692	fix_post	2		118	32.0	3.0	/Users/shufanzhang/Documents/PhD/Arrow_of_time/hcp_movie_eyetracking-main/movs/MomentsInTime/groups/group1/final_videos2/1_S_R_yt-VMUSo8E_Fj8_171.mp4	183.72005108406302	1.0004424159415066
35	166.94577670795843	fix_pre	0		95	33.0	3.0	/Users/shufanzhang/Documents/PhD/Arrow_of_time/hcp_movie_eyetracking-main/movs/MomentsInTime/groups/group1/final_videos2/2_S_R_yt-HPjLtkyzN3E_101.mp4	184.72049350000452	0.9985794170061126
35	167.94435612496454	movie	1		356	33.0	3.0	/Users/shufanzhang/Documents/PhD/Arrow_of_time/hcp_movie_eyetracking-main/movs/MomentsInTime/groups/group1/final_videos2/2_S_R_yt-HPjLtkyzN3E_101.mp4	185.71907291701064	2.9945588749833405
35	170.93891499994788	fix_post	2		119	33.0	3.0	/Users/shufanzhang/Documents/PhD/Arrow_of_time/hcp_movie_eyetracking-main/movs/MomentsInTime/groups/group1/final_videos2/2_S_R_yt-HPjLtkyzN3E_101.mp4	188.71363179199398	1.0067519170697778
36	171.94566691701766	fix_pre	0		117	34.0	3.0	/Users/shufanzhang/Documents/PhD/Arrow_of_time/hcp_movie_eyetracking-main/movs/MomentsInTime/groups/group1/final_videos2/1_S_yt-gzjV6YoK6X0_3.mp4	189.72038370906375	0.9903561659157276
36	172.9360230829334	movie	1		357	34.0	3.0	/Users/shufanzhang/Documents/PhD/Arrow_of_time/hcp_movie_eyetracking-main/movs/MomentsInTime/groups/group1/final_videos2/1_S_yt-gzjV6YoK6X0_3.mp4	190.71073987497948	3.009054791997187
36	175.94507787493058	fix_post	2		119	34.0	3.0	/Users/shufanzhang/Documents/PhD/Arrow_of_time/hcp_movie_eyetracking-main/movs/MomentsInTime/groups/group1/final_videos2/1_S_yt-gzjV6YoK6X0_3.mp4	193.71979466697667	1.0000223750248551
37	176.94510024995543	fix_pre	0		116	35.0	3.0	/Users/shufanzhang/Documents/PhD/Arrow_of_time/hcp_movie_eyetracking-main/movs/MomentsInTime/groups/group1/final_videos2/2_S_yt-s73Xqkcq9Js_285.mp4	194.71981704200152	1.0031623330432922
37	177.94826258299872	movie	1		358	35.0	3.0	/Users/shufanzhang/Documents/PhD/Arrow_of_time/hcp_movie_eyetracking-main/movs/MomentsInTime/groups/group1/final_videos2/2_S_yt-s73Xqkcq9Js_285.mp4	195.72297937504482	2.9905962499324232
37	180.93885883293115	fix_post	2		118	35.0	3.0	/Users/shufanzhang/Documents/PhD/Arrow_of_time/hcp_movie_eyetracking-main/movs/MomentsInTime/groups/group1/final_videos2/2_S_yt-s73Xqkcq9Js_285.mp4	198.71357562497724	0.9941782500827685
38	181.93303708301391	fix_pre	0		112	36.0	3.0	/Users/shufanzhang/Documents/PhD/Arrow_of_time/hcp_movie_eyetracking-main/movs/MomentsInTime/groups/group1/final_videos2/1_S_R_yt-KLInd-KrK_w_19.mp4	199.70775387506	1.017170500010252
38	182.30520104197785	response	0	escape		36.0	3.0	/Users/shufanzhang/Documents/PhD/Arrow_of_time/hcp_movie_eyetracking-main/movs/MomentsInTime/groups/group1/final_videos2/1_S_R_yt-KLInd-KrK_w_19.mp4	200.07991783402395	
38	182.95020758302417	movie	1		62	36.0	3.0	/Users/shufanzhang/Documents/PhD/Arrow_of_time/hcp_movie_eyetracking-main/movs/MomentsInTime/groups/group1/final_videos2/1_S_R_yt-KLInd-KrK_w_19.mp4	200.72492437507026	0.5262734999414533
