trial_nr	onset	event_type	phase	response	nr_frames	movie_index	movie_duration	movie_file	onset_abs	duration
0	0.06940070900600404	stim	0		198				17.57747666700743	1.6866487079532817
0	1.7409269589697942	response	0	space					19.24900291697122	
1	1.7560494169592857	stim	0		120				19.264125374960713	1.044818958034739
1	2.786759209004231	pulse	0	t					20.294835167005658	
1	2.8008683749940246	stim	1		117				20.308944332995452	1.0159075000556186
2	3.816775875049643	fix_pre	0		0	0.0	3.0	/Users/shufanzhang/Documents/PhD/Arrow_of_time/hcp_movie_eyetracking-main/movs/MomentsInTime/groups/group4/final_videos2/1_S_yt-zKnjBBYWe90_369.mp4	21.32485183305107	0.002430249936878681
2	3.819206124986522	movie	1		346	0.0	3.0	/Users/shufanzhang/Documents/PhD/Arrow_of_time/hcp_movie_eyetracking-main/movs/MomentsInTime/groups/group4/final_videos2/1_S_yt-zKnjBBYWe90_369.mp4	21.32728208298795	2.9908760839607567
2	6.810082208947279	fix_post	2		88	0.0	3.0	/Users/shufanzhang/Documents/PhD/Arrow_of_time/hcp_movie_eyetracking-main/movs/MomentsInTime/groups/group4/final_videos2/1_S_yt-zKnjBBYWe90_369.mp4	24.318158166948706	0.7395621250616387
3	7.549644334008917	fix_pre	0		0	1.0	3.0	/Users/shufanzhang/Documents/PhD/Arrow_of_time/hcp_movie_eyetracking-main/movs/MomentsInTime/groups/group4/final_videos2/1_S_R_yt-r2jZ0zZrqzQ_45.mp4	25.057720292010345	0.0014654999831691384
3	7.551109833992086	movie	1		361	1.0	3.0	/Users/shufanzhang/Documents/PhD/Arrow_of_time/hcp_movie_eyetracking-main/movs/MomentsInTime/groups/group4/final_videos2/1_S_R_yt-r2jZ0zZrqzQ_45.mp4	25.059185791993514	3.009027041029185
3	10.560136875021271	fix_post	2		89	1.0	3.0	/Users/shufanzhang/Documents/PhD/Arrow_of_time/hcp_movie_eyetracking-main/movs/MomentsInTime/groups/group4/final_videos2/1_S_R_yt-r2jZ0zZrqzQ_45.mp4	28.0682128330227	0.7397106669377536
4	11.299847541959025	fix_pre	0		0	2.0	3.0	/Users/shufanzhang/Documents/PhD/Arrow_of_time/hcp_movie_eyetracking-main/movs/MomentsInTime/groups/group4/final_videos2/1_S_yt-HwEfWfFJhRo_126.mp4	28.807923499960452	0.0014673330588266253
4	11.301314875017852	movie	1		355	2.0	3.0	/Users/shufanzhang/Documents/PhD/Arrow_of_time/hcp_movie_eyetracking-main/movs/MomentsInTime/groups/group4/final_videos2/1_S_yt-HwEfWfFJhRo_126.mp4	28.80939083301928	3.004685541964136
4	14.306000416981988	fix_post	2		74	2.0	3.0	/Users/shufanzhang/Documents/PhD/Arrow_of_time/hcp_movie_eyetracking-main/movs/MomentsInTime/groups/group4/final_videos2/1_S_yt-HwEfWfFJhRo_126.mp4	31.814076374983415	0.7491135830059648
5	15.055113999987952	fix_pre	0		0	3.0	3.0	/Users/shufanzhang/Documents/PhD/Arrow_of_time/hcp_movie_eyetracking-main/movs/MomentsInTime/groups/group4/final_videos2/2_S_R_yt-utYnOeoj2Rw_3.mp4	32.56318995798938	0.0015342090046033263
5	15.056648208992556	movie	1		360	3.0	3.0	/Users/shufanzhang/Documents/PhD/Arrow_of_time/hcp_movie_eyetracking-main/movs/MomentsInTime/groups/group4/final_videos2/2_S_R_yt-utYnOeoj2Rw_3.mp4	32.56472416699398	3.0033868750324473
5	18.060035084025003	fix_post	2		88	3.0	3.0	/Users/shufanzhang/Documents/PhD/Arrow_of_time/hcp_movie_eyetracking-main/movs/MomentsInTime/groups/group4/final_videos2/2_S_R_yt-utYnOeoj2Rw_3.mp4	35.56811104202643	0.7499622909817845
6	18.809997375006787	fix_pre	0		0	4.0	3.0	/Users/shufanzhang/Documents/PhD/Arrow_of_time/hcp_movie_eyetracking-main/movs/MomentsInTime/groups/group4/final_videos2/2_S_yt-Wf-RauSbVgA_56.mp4	36.318073333008215	0.0015514999395236373
6	18.81154887494631	movie	1		355	4.0	3.0	/Users/shufanzhang/Documents/PhD/Arrow_of_time/hcp_movie_eyetracking-main/movs/MomentsInTime/groups/group4/final_videos2/2_S_yt-Wf-RauSbVgA_56.mp4	36.31962483294774	2.9901519590057433
6	21.801700833952054	fix_post	2		87	4.0	3.0	/Users/shufanzhang/Documents/PhD/Arrow_of_time/hcp_movie_eyetracking-main/movs/MomentsInTime/groups/group4/final_videos2/2_S_yt-Wf-RauSbVgA_56.mp4	39.30977679195348	0.7546427909983322
7	22.556343624950387	fix_pre	0		0	5.0	3.0	/Users/shufanzhang/Documents/PhD/Arrow_of_time/hcp_movie_eyetracking-main/movs/MomentsInTime/groups/group4/final_videos2/2_S_yt-C0INfEJ4Awk_53.mp4	40.064419582951814	0.003688667085953057
7	22.56003229203634	movie	1		348	5.0	3.0	/Users/shufanzhang/Documents/PhD/Arrow_of_time/hcp_movie_eyetracking-main/movs/MomentsInTime/groups/group4/final_videos2/2_S_yt-C0INfEJ4Awk_53.mp4	40.06810825003777	2.9958914999151602
7	25.5559237919515	fix_post	2		88	5.0	3.0	/Users/shufanzhang/Documents/PhD/Arrow_of_time/hcp_movie_eyetracking-main/movs/MomentsInTime/groups/group4/final_videos2/2_S_yt-C0INfEJ4Awk_53.mp4	43.06399974995293	0.7450705000665039
8	26.300994292018004	fix_pre	0		0	6.0	3.0	/Users/shufanzhang/Documents/PhD/Arrow_of_time/hcp_movie_eyetracking-main/movs/MomentsInTime/groups/group4/final_videos2/1_S_R_yt-kNZUFy3cbjQ_9.mp4	43.80907025001943	0.0011551249772310257
8	26.302149416995235	movie	1		343	6.0	3.0	/Users/shufanzhang/Documents/PhD/Arrow_of_time/hcp_movie_eyetracking-main/movs/MomentsInTime/groups/group4/final_videos2/1_S_R_yt-kNZUFy3cbjQ_9.mp4	43.81022537499666	3.0121463329996914
8	29.314295749994926	fix_post	2		59	6.0	3.0	/Users/shufanzhang/Documents/PhD/Arrow_of_time/hcp_movie_eyetracking-main/movs/MomentsInTime/groups/group4/final_videos2/1_S_R_yt-kNZUFy3cbjQ_9.mp4	46.82237170799635	0.7375948340632021
9	30.05189058405813	fix_pre	0		0	7.0	3.0	/Users/shufanzhang/Documents/PhD/Arrow_of_time/hcp_movie_eyetracking-main/movs/MomentsInTime/groups/group4/final_videos2/1_S_R_yt-Ub5Xx5BqIOk_74.mp4	47.559966542059556	0.0017892079195007682
9	30.05367979197763	movie	1		358	7.0	3.0	/Users/shufanzhang/Documents/PhD/Arrow_of_time/hcp_movie_eyetracking-main/movs/MomentsInTime/groups/group4/final_videos2/1_S_R_yt-Ub5Xx5BqIOk_74.mp4	47.561755749979056	2.9921630420722067
9	33.045842834049836	fix_post	2		89	7.0	3.0	/Users/shufanzhang/Documents/PhD/Arrow_of_time/hcp_movie_eyetracking-main/movs/MomentsInTime/groups/group4/final_videos2/1_S_R_yt-Ub5Xx5BqIOk_74.mp4	50.55391879205126	0.7505754579324275
10	33.79641829198226	fix_pre	0		0	8.0	3.0	/Users/shufanzhang/Documents/PhD/Arrow_of_time/hcp_movie_eyetracking-main/movs/MomentsInTime/groups/group4/final_videos2/1_S_yt-r2jZ0zZrqzQ_45.mp4	51.30449424998369	0.001460124971345067
10	33.79787841695361	movie	1		356	8.0	3.0	/Users/shufanzhang/Documents/PhD/Arrow_of_time/hcp_movie_eyetracking-main/movs/MomentsInTime/groups/group4/final_videos2/1_S_yt-r2jZ0zZrqzQ_45.mp4	51.305954374955036	3.0121374170994386
10	36.81001583405305	fix_post	2		86	8.0	3.0	/Users/shufanzhang/Documents/PhD/Arrow_of_time/hcp_movie_eyetracking-main/movs/MomentsInTime/groups/group4/final_videos2/1_S_yt-r2jZ0zZrqzQ_45.mp4	54.318091792054474	0.7501640409464017
11	37.56017987499945	fix_pre	0		0	9.0	3.0	/Users/shufanzhang/Documents/PhD/Arrow_of_time/hcp_movie_eyetracking-main/movs/MomentsInTime/groups/group4/final_videos2/1_S_R_yt-JpOBXV46TLE_124.mp4	55.068255833000876	0.001802584039978683
11	37.56198245903943	movie	1		355	9.0	3.0	/Users/shufanzhang/Documents/PhD/Arrow_of_time/hcp_movie_eyetracking-main/movs/MomentsInTime/groups/group4/final_videos2/1_S_R_yt-JpOBXV46TLE_124.mp4	55.070058417040855	2.9939077500021085
11	40.555890209041536	fix_post	2		90	9.0	3.0	/Users/shufanzhang/Documents/PhD/Arrow_of_time/hcp_movie_eyetracking-main/movs/MomentsInTime/groups/group4/final_videos2/1_S_R_yt-JpOBXV46TLE_124.mp4	58.06396616704296	0.7467976659536362
12	41.30268787499517	fix_pre	0		0	10.0	3.0	/Users/shufanzhang/Documents/PhD/Arrow_of_time/hcp_movie_eyetracking-main/movs/MomentsInTime/groups/group4/final_videos2/2_S_yt-Rqwi-Fk9IJQ_114.mp4	58.8107638329966	0.0012854170054197311
12	41.30397329200059	movie	1		360	10.0	3.0	/Users/shufanzhang/Documents/PhD/Arrow_of_time/hcp_movie_eyetracking-main/movs/MomentsInTime/groups/group4/final_videos2/2_S_yt-Rqwi-Fk9IJQ_114.mp4	58.81204925000202	2.991857249988243
12	44.295830541988835	fix_post	2		90	10.0	3.0	/Users/shufanzhang/Documents/PhD/Arrow_of_time/hcp_movie_eyetracking-main/movs/MomentsInTime/groups/group4/final_videos2/2_S_yt-Rqwi-Fk9IJQ_114.mp4	61.80390649999026	0.754923333064653
13	45.05075387505349	fix_pre	0		0	11.0	3.0	/Users/shufanzhang/Documents/PhD/Arrow_of_time/hcp_movie_eyetracking-main/movs/MomentsInTime/groups/group4/final_videos2/2_S_wc-16LozRfhUGea_49.mp4	62.558829833054915	0.0016065419185906649
13	45.05236041697208	movie	1		359	11.0	3.0	/Users/shufanzhang/Documents/PhD/Arrow_of_time/hcp_movie_eyetracking-main/movs/MomentsInTime/groups/group4/final_videos2/2_S_wc-16LozRfhUGea_49.mp4	62.560436374973506	2.999262082972564
13	48.05162249994464	fix_post	2		88	11.0	3.0	/Users/shufanzhang/Documents/PhD/Arrow_of_time/hcp_movie_eyetracking-main/movs/MomentsInTime/groups/group4/final_videos2/2_S_wc-16LozRfhUGea_49.mp4	65.55969845794607	0.7496415000641719
14	48.801264000008814	fix_pre	0		0	12.0	3.0	/Users/shufanzhang/Documents/PhD/Arrow_of_time/hcp_movie_eyetracking-main/movs/MomentsInTime/groups/group4/final_videos2/2_S_yt-c-H45QS0CF4_147.mp4	66.30933995801024	0.0015247500268742442
14	48.80278875003569	movie	1		358	12.0	3.0	/Users/shufanzhang/Documents/PhD/Arrow_of_time/hcp_movie_eyetracking-main/movs/MomentsInTime/groups/group4/final_videos2/2_S_yt-c-H45QS0CF4_147.mp4	66.31086470803712	2.9988629589788616
14	51.80165170901455	fix_post	2		89	12.0	3.0	/Users/shufanzhang/Documents/PhD/Arrow_of_time/hcp_movie_eyetracking-main/movs/MomentsInTime/groups/group4/final_videos2/2_S_yt-c-H45QS0CF4_147.mp4	69.30972766701598	0.7546655000187457
15	52.556317209033296	fix_pre	0		0	13.0	3.0	/Users/shufanzhang/Documents/PhD/Arrow_of_time/hcp_movie_eyetracking-main/movs/MomentsInTime/groups/group4/final_videos2/2_S_R_yt-GjFQxAklviE_25.mp4	70.06439316703472	0.001276999944821
15	52.55759420897812	movie	1		359	13.0	3.0	/Users/shufanzhang/Documents/PhD/Arrow_of_time/hcp_movie_eyetracking-main/movs/MomentsInTime/groups/group4/final_videos2/2_S_R_yt-GjFQxAklviE_25.mp4	70.06567016697954	2.99403100006748
15	55.551625209045596	fix_post	2		88	13.0	3.0	/Users/shufanzhang/Documents/PhD/Arrow_of_time/hcp_movie_eyetracking-main/movs/MomentsInTime/groups/group4/final_videos2/2_S_R_yt-GjFQxAklviE_25.mp4	73.05970116704702	0.7507147499127313
16	56.30233995895833	fix_pre	0		0	14.0	3.0	/Users/shufanzhang/Documents/PhD/Arrow_of_time/hcp_movie_eyetracking-main/movs/MomentsInTime/groups/group4/final_videos2/2_S_yt-w5lh_rKyKtE_21.mp4	73.81041591695976	0.0016076250467449427
16	56.30394758400507	movie	1		353	14.0	3.0	/Users/shufanzhang/Documents/PhD/Arrow_of_time/hcp_movie_eyetracking-main/movs/MomentsInTime/groups/group4/final_videos2/2_S_yt-w5lh_rKyKtE_21.mp4	73.8120235420065	2.997692666016519
16	59.30164025002159	fix_post	2		90	14.0	3.0	/Users/shufanzhang/Documents/PhD/Arrow_of_time/hcp_movie_eyetracking-main/movs/MomentsInTime/groups/group4/final_videos2/2_S_yt-w5lh_rKyKtE_21.mp4	76.80971620802302	0.7590319589944556
17	60.06067220901605	fix_pre	0		0	15.0	3.0	/Users/shufanzhang/Documents/PhD/Arrow_of_time/hcp_movie_eyetracking-main/movs/MomentsInTime/groups/group4/final_videos2/1_S_R_yt-fLNDhX22diw_98.mp4	77.56874816701747	0.001851125038228929
17	60.062523334054276	movie	1		357	15.0	3.0	/Users/shufanzhang/Documents/PhD/Arrow_of_time/hcp_movie_eyetracking-main/movs/MomentsInTime/groups/group4/final_videos2/1_S_R_yt-fLNDhX22diw_98.mp4	77.5705992920557	2.9935538748977706
17	63.05607720895205	fix_post	2		90	15.0	3.0	/Users/shufanzhang/Documents/PhD/Arrow_of_time/hcp_movie_eyetracking-main/movs/MomentsInTime/groups/group4/final_videos2/1_S_R_yt-fLNDhX22diw_98.mp4	80.56415316695347	0.7505234580021352
18	63.80660066695418	fix_pre	0		0	16.0	3.0	/Users/shufanzhang/Documents/PhD/Arrow_of_time/hcp_movie_eyetracking-main/movs/MomentsInTime/groups/group4/final_videos2/1_S_R_yt-yQrDeFlFmfM_138.mp4	81.31467662495561	0.0015612500719726086
18	63.808161917026155	movie	1		357	16.0	3.0	/Users/shufanzhang/Documents/PhD/Arrow_of_time/hcp_movie_eyetracking-main/movs/MomentsInTime/groups/group4/final_videos2/1_S_R_yt-yQrDeFlFmfM_138.mp4	81.31623787502758	2.997859042021446
18	66.8060209590476	fix_post	2		87	16.0	3.0	/Users/shufanzhang/Documents/PhD/Arrow_of_time/hcp_movie_eyetracking-main/movs/MomentsInTime/groups/group4/final_videos2/1_S_R_yt-yQrDeFlFmfM_138.mp4	84.31409691704903	0.745018457993865
19	67.55103941704147	fix_pre	0		0	17.0	3.0	/Users/shufanzhang/Documents/PhD/Arrow_of_time/hcp_movie_eyetracking-main/movs/MomentsInTime/groups/group4/final_videos2/2_S_yt-5doJmCcFL7s_3.mp4	85.0591153750429	0.0014431249583140016
19	67.55248254199978	movie	1		357	17.0	3.0	/Users/shufanzhang/Documents/PhD/Arrow_of_time/hcp_movie_eyetracking-main/movs/MomentsInTime/groups/group4/final_videos2/2_S_yt-5doJmCcFL7s_3.mp4	85.0605585000012	3.0034015419660136
19	70.5558840839658	fix_post	2		90	17.0	3.0	/Users/shufanzhang/Documents/PhD/Arrow_of_time/hcp_movie_eyetracking-main/movs/MomentsInTime/groups/group4/final_videos2/2_S_yt-5doJmCcFL7s_3.mp4	88.06396004196722	0.750784125062637
20	71.30666820902843	fix_pre	0		0	18.0	3.0	/Users/shufanzhang/Documents/PhD/Arrow_of_time/hcp_movie_eyetracking-main/movs/MomentsInTime/groups/group4/final_videos2/1_S_R_yt-kxWtOXNIsRA_329.mp4	88.81474416702986	0.0013455409789457917
20	71.30801375000738	movie	1		359	18.0	3.0	/Users/shufanzhang/Documents/PhD/Arrow_of_time/hcp_movie_eyetracking-main/movs/MomentsInTime/groups/group4/final_videos2/1_S_R_yt-kxWtOXNIsRA_329.mp4	88.8160897080088	2.9978090419899672
20	74.30582279199734	fix_post	2		89	18.0	3.0	/Users/shufanzhang/Documents/PhD/Arrow_of_time/hcp_movie_eyetracking-main/movs/MomentsInTime/groups/group4/final_videos2/1_S_R_yt-kxWtOXNIsRA_329.mp4	91.81389874999877	0.7450051669729874
21	75.05082795897033	fix_pre	0		0	19.0	3.0	/Users/shufanzhang/Documents/PhD/Arrow_of_time/hcp_movie_eyetracking-main/movs/MomentsInTime/groups/group4/final_videos2/1_S_yt-MsSEF0krKE4_149.mp4	92.55890391697176	0.0014822500525042415
21	75.05231020902283	movie	1		358	19.0	3.0	/Users/shufanzhang/Documents/PhD/Arrow_of_time/hcp_movie_eyetracking-main/movs/MomentsInTime/groups/group4/final_videos2/1_S_yt-MsSEF0krKE4_149.mp4	92.56038616702426	2.997705165995285
21	78.05001537501812	fix_post	2		90	19.0	3.0	/Users/shufanzhang/Documents/PhD/Arrow_of_time/hcp_movie_eyetracking-main/movs/MomentsInTime/groups/group4/final_videos2/1_S_yt-MsSEF0krKE4_149.mp4	95.55809133301955	0.7515156669542193
22	78.80153104197234	fix_pre	0		0	20.0	3.0	/Users/shufanzhang/Documents/PhD/Arrow_of_time/hcp_movie_eyetracking-main/movs/MomentsInTime/groups/group4/final_videos2/1_S_yt-nlfwzxlwRfk_12.mp4	96.30960699997377	0.0014703330816701055
22	78.80300137505401	movie	1		357	20.0	3.0	/Users/shufanzhang/Documents/PhD/Arrow_of_time/hcp_movie_eyetracking-main/movs/MomentsInTime/groups/group4/final_videos2/1_S_yt-nlfwzxlwRfk_12.mp4	96.31107733305544	2.997234624926932
22	81.80023599998094	fix_post	2		90	20.0	3.0	/Users/shufanzhang/Documents/PhD/Arrow_of_time/hcp_movie_eyetracking-main/movs/MomentsInTime/groups/group4/final_videos2/1_S_yt-nlfwzxlwRfk_12.mp4	99.30831195798237	0.7501105840783566
23	82.5503465840593	fix_pre	0		0	21.0	3.0	/Users/shufanzhang/Documents/PhD/Arrow_of_time/hcp_movie_eyetracking-main/movs/MomentsInTime/groups/group4/final_videos2/2_S_R_ioSkDvwpEaU_35.mp4	100.05842254206073	0.0013314579846337438
23	82.55167804204393	movie	1		357	21.0	3.0	/Users/shufanzhang/Documents/PhD/Arrow_of_time/hcp_movie_eyetracking-main/movs/MomentsInTime/groups/group4/final_videos2/2_S_R_ioSkDvwpEaU_35.mp4	100.05975400004536	2.998564791982062
23	85.550242834026	fix_post	2		90	21.0	3.0	/Users/shufanzhang/Documents/PhD/Arrow_of_time/hcp_movie_eyetracking-main/movs/MomentsInTime/groups/group4/final_videos2/2_S_R_ioSkDvwpEaU_35.mp4	103.05831879202742	0.750552749959752
24	86.30079558398575	fix_pre	0		0	22.0	3.0	/Users/shufanzhang/Documents/PhD/Arrow_of_time/hcp_movie_eyetracking-main/movs/MomentsInTime/groups/group4/final_videos2/1_S_R_yt-A1XT1fT1c8w_24.mp4	103.80887154198717	0.0013114160392433405
24	86.30210700002499	movie	1		359	22.0	3.0	/Users/shufanzhang/Documents/PhD/Arrow_of_time/hcp_movie_eyetracking-main/movs/MomentsInTime/groups/group4/final_videos2/1_S_R_yt-A1XT1fT1c8w_24.mp4	103.81018295802642	3.0039583339821547
24	89.30606533400714	fix_post	2		88	22.0	3.0	/Users/shufanzhang/Documents/PhD/Arrow_of_time/hcp_movie_eyetracking-main/movs/MomentsInTime/groups/group4/final_videos2/1_S_R_yt-A1XT1fT1c8w_24.mp4	106.81414129200857	0.7388400830095634
25	90.04490541701671	fix_pre	0		0	23.0	3.0	/Users/shufanzhang/Documents/PhD/Arrow_of_time/hcp_movie_eyetracking-main/movs/MomentsInTime/groups/group4/final_videos2/1_S_R_yt-KQq7vTlXUiQ_173.mp4	107.55298137501813	0.001031916937790811
25	90.0459373339545	movie	1		361	23.0	3.0	/Users/shufanzhang/Documents/PhD/Arrow_of_time/hcp_movie_eyetracking-main/movs/MomentsInTime/groups/group4/final_videos2/1_S_R_yt-KQq7vTlXUiQ_173.mp4	107.55401329195593	3.009840458049439
25	93.05577779200394	fix_post	2		89	23.0	3.0	/Users/shufanzhang/Documents/PhD/Arrow_of_time/hcp_movie_eyetracking-main/movs/MomentsInTime/groups/group4/final_videos2/1_S_R_yt-KQq7vTlXUiQ_173.mp4	110.56385375000536	0.7450258750468493
26	93.80080366705079	fix_pre	0		0	24.0	3.0	/Users/shufanzhang/Documents/PhD/Arrow_of_time/hcp_movie_eyetracking-main/movs/MomentsInTime/groups/group4/final_videos2/2_S_yt-jbvXEFk2Gyw_12.mp4	111.30887962505221	0.0013262499123811722
26	93.80212991696317	movie	1		356	24.0	3.0	/Users/shufanzhang/Documents/PhD/Arrow_of_time/hcp_movie_eyetracking-main/movs/MomentsInTime/groups/group4/final_videos2/2_S_yt-jbvXEFk2Gyw_12.mp4	111.3102058749646	3.00366341706831
26	96.80579333403148	fix_post	2		86	24.0	3.0	/Users/shufanzhang/Documents/PhD/Arrow_of_time/hcp_movie_eyetracking-main/movs/MomentsInTime/groups/group4/final_videos2/2_S_yt-jbvXEFk2Gyw_12.mp4	114.3138692920329	0.7537083749193698
27	97.55950170895085	fix_pre	0		0	25.0	3.0	/Users/shufanzhang/Documents/PhD/Arrow_of_time/hcp_movie_eyetracking-main/movs/MomentsInTime/groups/group4/final_videos2/2_S_R_yt-k4B_NtWn41Y_169.mp4	115.06757766695227	0.0014828750863671303
27	97.56098458403721	movie	1		358	25.0	3.0	/Users/shufanzhang/Documents/PhD/Arrow_of_time/hcp_movie_eyetracking-main/movs/MomentsInTime/groups/group4/final_videos2/2_S_R_yt-k4B_NtWn41Y_169.mp4	115.06906054203864	2.988884957972914
27	100.54986954201013	fix_post	2		90	25.0	3.0	/Users/shufanzhang/Documents/PhD/Arrow_of_time/hcp_movie_eyetracking-main/movs/MomentsInTime/groups/group4/final_videos2/2_S_R_yt-k4B_NtWn41Y_169.mp4	118.05794550001156	0.7562400420429185
28	101.30610958405305	fix_pre	0		0	26.0	3.0	/Users/shufanzhang/Documents/PhD/Arrow_of_time/hcp_movie_eyetracking-main/movs/MomentsInTime/groups/group4/final_videos2/2_S_yt-uY5xsUKn8zU_17.mp4	118.81418554205447	0.0009217079496011138
28	101.30703129200265	movie	1		357	26.0	3.0	/Users/shufanzhang/Documents/PhD/Arrow_of_time/hcp_movie_eyetracking-main/movs/MomentsInTime/groups/group4/final_videos2/2_S_yt-uY5xsUKn8zU_17.mp4	118.81510725000408	2.9893949580146
28	104.29642625001725	fix_post	2		90	26.0	3.0	/Users/shufanzhang/Documents/PhD/Arrow_of_time/hcp_movie_eyetracking-main/movs/MomentsInTime/groups/group4/final_videos2/2_S_yt-uY5xsUKn8zU_17.mp4	121.80450220801868	0.752416874980554
29	105.0488431249978	fix_pre	0		0	27.0	3.0	/Users/shufanzhang/Documents/PhD/Arrow_of_time/hcp_movie_eyetracking-main/movs/MomentsInTime/groups/group4/final_videos2/2_S_yt-LKd9mHnUVUQ_230.mp4	122.55691908299923	0.0012326670112088323
29	105.05007579200901	movie	1		347	27.0	3.0	/Users/shufanzhang/Documents/PhD/Arrow_of_time/hcp_movie_eyetracking-main/movs/MomentsInTime/groups/group4/final_videos2/2_S_yt-LKd9mHnUVUQ_230.mp4	122.55815175001044	2.99574029201176
29	108.04581608402077	fix_post	2		91	27.0	3.0	/Users/shufanzhang/Documents/PhD/Arrow_of_time/hcp_movie_eyetracking-main/movs/MomentsInTime/groups/group4/final_videos2/2_S_yt-LKd9mHnUVUQ_230.mp4	125.5538920420222	0.7641796249663457
30	108.80999570898712	fix_pre	0		0	28.0	3.0	/Users/shufanzhang/Documents/PhD/Arrow_of_time/hcp_movie_eyetracking-main/movs/MomentsInTime/groups/group4/final_videos2/2_S_R_yt-QD74nNliDvI_10.mp4	126.31807166698854	0.0015995410503819585
30	108.8115952500375	movie	1		315	28.0	3.0	/Users/shufanzhang/Documents/PhD/Arrow_of_time/hcp_movie_eyetracking-main/movs/MomentsInTime/groups/group4/final_videos2/2_S_R_yt-QD74nNliDvI_10.mp4	126.31967120803893	2.9942454589763656
30	111.80584070901386	fix_post	2		89	28.0	3.0	/Users/shufanzhang/Documents/PhD/Arrow_of_time/hcp_movie_eyetracking-main/movs/MomentsInTime/groups/group4/final_videos2/2_S_R_yt-QD74nNliDvI_10.mp4	129.3139166670153	0.7609440829837695
31	112.56678479199763	fix_pre	0		0	29.0	3.0	/Users/shufanzhang/Documents/PhD/Arrow_of_time/hcp_movie_eyetracking-main/movs/MomentsInTime/groups/group4/final_videos2/1_S_R_yt-7WYXuBHeorw_188.mp4	130.07486074999906	0.00185720797162503
31	112.56864199996926	movie	1		356	29.0	3.0	/Users/shufanzhang/Documents/PhD/Arrow_of_time/hcp_movie_eyetracking-main/movs/MomentsInTime/groups/group4/final_videos2/1_S_R_yt-7WYXuBHeorw_188.mp4	130.0767179579707	2.98729145899415
31	115.55593345896341	fix_post	2		89	29.0	3.0	/Users/shufanzhang/Documents/PhD/Arrow_of_time/hcp_movie_eyetracking-main/movs/MomentsInTime/groups/group4/final_videos2/1_S_R_yt-7WYXuBHeorw_188.mp4	133.06400941696484	0.7450020830146968
32	116.3009355419781	fix_pre	0		0	30.0	3.0	/Users/shufanzhang/Documents/PhD/Arrow_of_time/hcp_movie_eyetracking-main/movs/MomentsInTime/groups/group4/final_videos2/1_S_yt-yPl8LcgSMjo_32.mp4	133.80901149997953	0.0009374170331284404
32	116.30187295901123	movie	1		356	30.0	3.0	/Users/shufanzhang/Documents/PhD/Arrow_of_time/hcp_movie_eyetracking-main/movs/MomentsInTime/groups/group4/final_videos2/1_S_yt-yPl8LcgSMjo_32.mp4	133.80994891701266	2.9983298330334947
32	119.30020279204473	fix_post	2		90	30.0	3.0	/Users/shufanzhang/Documents/PhD/Arrow_of_time/hcp_movie_eyetracking-main/movs/MomentsInTime/groups/group4/final_videos2/1_S_yt-yPl8LcgSMjo_32.mp4	136.80827875004616	0.7556174999335781
33	120.0558202919783	fix_pre	0		0	31.0	3.0	/Users/shufanzhang/Documents/PhD/Arrow_of_time/hcp_movie_eyetracking-main/movs/MomentsInTime/groups/group4/final_videos2/1_S_yt-sWJc_Do8EaI_32.mp4	137.56389624997973	0.001584207988344133
33	120.05740449996665	movie	1		356	31.0	3.0	/Users/shufanzhang/Documents/PhD/Arrow_of_time/hcp_movie_eyetracking-main/movs/MomentsInTime/groups/group4/final_videos2/1_S_yt-sWJc_Do8EaI_32.mp4	137.56548045796808	2.9926635840674862
33	123.05006808403414	fix_post	2		88	31.0	3.0	/Users/shufanzhang/Documents/PhD/Arrow_of_time/hcp_movie_eyetracking-main/movs/MomentsInTime/groups/group4/final_videos2/1_S_yt-sWJc_Do8EaI_32.mp4	140.55814404203556	0.7558017499977723
34	123.80586983403191	fix_pre	0		0	32.0	3.0	/Users/shufanzhang/Documents/PhD/Arrow_of_time/hcp_movie_eyetracking-main/movs/MomentsInTime/groups/group4/final_videos2/2_S_R_yt-tfHCqgH1guY_235.mp4	141.31394579203334	0.0018246659310534596
34	123.80769449996296	movie	1		342	32.0	3.0	/Users/shufanzhang/Documents/PhD/Arrow_of_time/hcp_movie_eyetracking-main/movs/MomentsInTime/groups/group4/final_videos2/2_S_R_yt-tfHCqgH1guY_235.mp4	141.3157704579644	2.987965959007852
34	126.79566045897081	fix_post	2		84	32.0	3.0	/Users/shufanzhang/Documents/PhD/Arrow_of_time/hcp_movie_eyetracking-main/movs/MomentsInTime/groups/group4/final_videos2/2_S_R_yt-tfHCqgH1guY_235.mp4	144.30373641697224	0.7559527080738917
35	127.5516131670447	fix_pre	0		0	33.0	3.0	/Users/shufanzhang/Documents/PhD/Arrow_of_time/hcp_movie_eyetracking-main/movs/MomentsInTime/groups/group4/final_videos2/2_S_yt-H611SOb1T78_189.mp4	145.05968912504613	0.0015627499669790268
35	127.55317591701169	movie	1		360	33.0	3.0	/Users/shufanzhang/Documents/PhD/Arrow_of_time/hcp_movie_eyetracking-main/movs/MomentsInTime/groups/group4/final_videos2/2_S_yt-H611SOb1T78_189.mp4	145.0612518750131	3.0026566250016913
35	130.55583254201338	fix_post	2		90	33.0	3.0	/Users/shufanzhang/Documents/PhD/Arrow_of_time/hcp_movie_eyetracking-main/movs/MomentsInTime/groups/group4/final_videos2/2_S_yt-H611SOb1T78_189.mp4	148.0639085000148	0.7480842500226572
36	131.30391679203603	fix_pre	0		0	34.0	3.0	/Users/shufanzhang/Documents/PhD/Arrow_of_time/hcp_movie_eyetracking-main/movs/MomentsInTime/groups/group4/final_videos2/1_S_R_yt-Xegmd8whqBs_230.mp4	148.81199275003746	0.0016129579162225127
36	131.30552974995226	movie	1		357	34.0	3.0	/Users/shufanzhang/Documents/PhD/Arrow_of_time/hcp_movie_eyetracking-main/movs/MomentsInTime/groups/group4/final_videos2/1_S_R_yt-Xegmd8whqBs_230.mp4	148.81360570795368	2.9943459590431303
36	134.2998757089954	fix_post	2		87	34.0	3.0	/Users/shufanzhang/Documents/PhD/Arrow_of_time/hcp_movie_eyetracking-main/movs/MomentsInTime/groups/group4/final_videos2/1_S_R_yt-Xegmd8whqBs_230.mp4	151.80795166699681	0.7597892499761656
37	135.05966495897155	fix_pre	0		0	35.0	3.0	/Users/shufanzhang/Documents/PhD/Arrow_of_time/hcp_movie_eyetracking-main/movs/MomentsInTime/groups/group4/final_videos2/1_S_yt-tfHCqgH1guY_235.mp4	152.56774091697298	0.0014828330604359508
37	135.061147792032	movie	1		358	35.0	3.0	/Users/shufanzhang/Documents/PhD/Arrow_of_time/hcp_movie_eyetracking-main/movs/MomentsInTime/groups/group4/final_videos2/1_S_yt-tfHCqgH1guY_235.mp4	152.56922375003342	2.994662749930285
37	138.05581054196227	fix_post	2		88	35.0	3.0	/Users/shufanzhang/Documents/PhD/Arrow_of_time/hcp_movie_eyetracking-main/movs/MomentsInTime/groups/group4/final_videos2/1_S_yt-tfHCqgH1guY_235.mp4	155.5638864999637	0.747340708039701
38	138.80315125000197	fix_pre	0		0	36.0	3.0	/Users/shufanzhang/Documents/PhD/Arrow_of_time/hcp_movie_eyetracking-main/movs/MomentsInTime/groups/group4/final_videos2/1_S_R_yt-K7viJXt9vX8_143.mp4	156.3112272080034	0.0016010419931262732
38	138.8047522919951	movie	1		358	36.0	3.0	/Users/shufanzhang/Documents/PhD/Arrow_of_time/hcp_movie_eyetracking-main/movs/MomentsInTime/groups/group4/final_videos2/1_S_R_yt-K7viJXt9vX8_143.mp4	156.31282824999653	2.9950183329638094
38	141.7997706249589	fix_post	2		85	36.0	3.0	/Users/shufanzhang/Documents/PhD/Arrow_of_time/hcp_movie_eyetracking-main/movs/MomentsInTime/groups/group4/final_videos2/1_S_R_yt-K7viJXt9vX8_143.mp4	159.30784658296034	0.755812417017296
39	142.5555830419762	fix_pre	0		0	37.0	3.0	/Users/shufanzhang/Documents/PhD/Arrow_of_time/hcp_movie_eyetracking-main/movs/MomentsInTime/groups/group4/final_videos2/1_S_yt-CRw9-cCQqbg_332.mp4	160.06365899997763	0.0014434580225497484
39	142.55702649999876	movie	1		358	37.0	3.0	/Users/shufanzhang/Documents/PhD/Arrow_of_time/hcp_movie_eyetracking-main/movs/MomentsInTime/groups/group4/final_videos2/1_S_yt-CRw9-cCQqbg_332.mp4	160.06510245800018	2.9887391249649227
39	145.54576562496368	fix_post	2		89	37.0	3.0	/Users/shufanzhang/Documents/PhD/Arrow_of_time/hcp_movie_eyetracking-main/movs/MomentsInTime/groups/group4/final_videos2/1_S_yt-CRw9-cCQqbg_332.mp4	163.0538415829651	0.754243417060934
40	146.3000090420246	fix_pre	0		0	38.0	3.0	/Users/shufanzhang/Documents/PhD/Arrow_of_time/hcp_movie_eyetracking-main/movs/MomentsInTime/groups/group4/final_videos2/2_S_R_yt-GHRCzDzThnI_72.mp4	163.80808500002604	0.0014722499763593078
40	146.30148129200097	movie	1		357	38.0	3.0	/Users/shufanzhang/Documents/PhD/Arrow_of_time/hcp_movie_eyetracking-main/movs/MomentsInTime/groups/group4/final_videos2/2_S_R_yt-GHRCzDzThnI_72.mp4	163.8095572500024	3.004165083053522
40	149.3056463750545	fix_post	2		90	38.0	3.0	/Users/shufanzhang/Documents/PhD/Arrow_of_time/hcp_movie_eyetracking-main/movs/MomentsInTime/groups/group4/final_videos2/2_S_R_yt-GHRCzDzThnI_72.mp4	166.81372233305592	0.7502807499840856
41	150.05592712503858	fix_pre	0		0	39.0	3.0	/Users/shufanzhang/Documents/PhD/Arrow_of_time/hcp_movie_eyetracking-main/movs/MomentsInTime/groups/group4/final_videos2/2_S_yt-fLNDhX22diw_98.mp4	167.56400308304	0.0015398749383166432
41	150.0574669999769	movie	1		356	39.0	3.0	/Users/shufanzhang/Documents/PhD/Arrow_of_time/hcp_movie_eyetracking-main/movs/MomentsInTime/groups/group4/final_videos2/2_S_yt-fLNDhX22diw_98.mp4	167.56554295797832	3.002559583983384
41	153.06002658396028	fix_post	2		60	39.0	3.0	/Users/shufanzhang/Documents/PhD/Arrow_of_time/hcp_movie_eyetracking-main/movs/MomentsInTime/groups/group4/final_videos2/2_S_yt-fLNDhX22diw_98.mp4	170.5681025419617	0.7496413750341162
42	153.8096679589944	fix_pre	0		0	40.0	3.0	/Users/shufanzhang/Documents/PhD/Arrow_of_time/hcp_movie_eyetracking-main/movs/MomentsInTime/groups/group4/final_videos2/2_S_R_yt-KM_SJx8CMGc_10.mp4	171.31774391699582	0.0014577079564332962
42	153.81112566695083	movie	1		351	40.0	3.0	/Users/shufanzhang/Documents/PhD/Arrow_of_time/hcp_movie_eyetracking-main/movs/MomentsInTime/groups/group4/final_videos2/2_S_R_yt-KM_SJx8CMGc_10.mp4	171.31920162495226	2.9947592919925228
42	156.80588495894335	fix_post	2		84	40.0	3.0	/Users/shufanzhang/Documents/PhD/Arrow_of_time/hcp_movie_eyetracking-main/movs/MomentsInTime/groups/group4/final_videos2/2_S_R_yt-KM_SJx8CMGc_10.mp4	174.31396091694478	0.7460931250825524
43	157.5519780840259	fix_pre	0		0	41.0	3.0	/Users/shufanzhang/Documents/PhD/Arrow_of_time/hcp_movie_eyetracking-main/movs/MomentsInTime/groups/group4/final_videos2/1_S_bing-www_cnn_com_2015_04_20_living_steak-eating-contest-molly-schuyler-feat_index_html_1.mp4	175.06005404202733	0.0014831250300630927
43	157.55346120905597	movie	1		358	41.0	3.0	/Users/shufanzhang/Documents/PhD/Arrow_of_time/hcp_movie_eyetracking-main/movs/MomentsInTime/groups/group4/final_videos2/1_S_bing-www_cnn_com_2015_04_20_living_steak-eating-contest-molly-schuyler-feat_index_html_1.mp4	175.0615371670574	2.9962759579066187
43	160.5497371669626	fix_post	2		90	41.0	3.0	/Users/shufanzhang/Documents/PhD/Arrow_of_time/hcp_movie_eyetracking-main/movs/MomentsInTime/groups/group4/final_videos2/1_S_bing-www_cnn_com_2015_04_20_living_steak-eating-contest-molly-schuyler-feat_index_html_1.mp4	178.057813124964	0.7560553750954568
44	161.30579254205804	fix_pre	0		0	42.0	3.0	/Users/shufanzhang/Documents/PhD/Arrow_of_time/hcp_movie_eyetracking-main/movs/MomentsInTime/groups/group4/final_videos2/2_S_yt-JpOBXV46TLE_124.mp4	178.81386850005947	0.0008633749093860388
44	161.30665591696743	movie	1		360	42.0	3.0	/Users/shufanzhang/Documents/PhD/Arrow_of_time/hcp_movie_eyetracking-main/movs/MomentsInTime/groups/group4/final_videos2/2_S_yt-JpOBXV46TLE_124.mp4	178.81473187496886	2.998971207998693
44	164.30562712496612	fix_post	2		85	42.0	3.0	/Users/shufanzhang/Documents/PhD/Arrow_of_time/hcp_movie_eyetracking-main/movs/MomentsInTime/groups/group4/final_videos2/2_S_yt-JpOBXV46TLE_124.mp4	181.81370308296755	0.7528491250704974
45	165.05847625003662	fix_pre	0		0	43.0	3.0	/Users/shufanzhang/Documents/PhD/Arrow_of_time/hcp_movie_eyetracking-main/movs/MomentsInTime/groups/group4/final_videos2/2_S_wc-6or3Gl2Fif0m_13.mp4	182.56655220803805	0.0014229589141905308
45	165.0598992089508	movie	1		355	43.0	3.0	/Users/shufanzhang/Documents/PhD/Arrow_of_time/hcp_movie_eyetracking-main/movs/MomentsInTime/groups/group4/final_videos2/2_S_wc-6or3Gl2Fif0m_13.mp4	182.56797516695224	2.9958995000924915
45	168.0557987090433	fix_post	2		88	43.0	3.0	/Users/shufanzhang/Documents/PhD/Arrow_of_time/hcp_movie_eyetracking-main/movs/MomentsInTime/groups/group4/final_videos2/2_S_wc-6or3Gl2Fif0m_13.mp4	185.56387466704473	0.7542492499342188
46	168.81004795897752	fix_pre	0		0	44.0	3.0	/Users/shufanzhang/Documents/PhD/Arrow_of_time/hcp_movie_eyetracking-main/movs/MomentsInTime/groups/group4/final_videos2/2_S_R_yt-VyVvEvP6MRM_124.mp4	186.31812391697895	0.0014709579991176724
46	168.81151891697664	movie	1		358	44.0	3.0	/Users/shufanzhang/Documents/PhD/Arrow_of_time/hcp_movie_eyetracking-main/movs/MomentsInTime/groups/group4/final_videos2/2_S_R_yt-VyVvEvP6MRM_124.mp4	186.31959487497807	2.988060125033371
46	171.79957904201	fix_post	2		88	44.0	3.0	/Users/shufanzhang/Documents/PhD/Arrow_of_time/hcp_movie_eyetracking-main/movs/MomentsInTime/groups/group4/final_videos2/2_S_R_yt-VyVvEvP6MRM_124.mp4	189.30765500001144	0.7603294580476359
47	172.55990850005765	fix_pre	0		0	45.0	3.0	/Users/shufanzhang/Documents/PhD/Arrow_of_time/hcp_movie_eyetracking-main/movs/MomentsInTime/groups/group4/final_videos2/1_S_yt-2SVpSaBAxsw_78.mp4	190.06798445805907	0.00178733398206532
47	172.5616958340397	movie	1		355	45.0	3.0	/Users/shufanzhang/Documents/PhD/Arrow_of_time/hcp_movie_eyetracking-main/movs/MomentsInTime/groups/group4/final_videos2/1_S_yt-2SVpSaBAxsw_78.mp4	190.06977179204114	2.9980270409723744
47	175.55972287501208	fix_post	2		90	45.0	3.0	/Users/shufanzhang/Documents/PhD/Arrow_of_time/hcp_movie_eyetracking-main/movs/MomentsInTime/groups/group4/final_videos2/1_S_yt-2SVpSaBAxsw_78.mp4	193.0677988330135	0.7500663340324536
48	176.30978920904454	fix_pre	0		0	46.0	3.0	/Users/shufanzhang/Documents/PhD/Arrow_of_time/hcp_movie_eyetracking-main/movs/MomentsInTime/groups/group4/final_videos2/1_S_yt-r7PeFd-hIp0_378.mp4	193.81786516704597	0.0008811249863356352
48	176.31067033403087	movie	1		359	46.0	3.0	/Users/shufanzhang/Documents/PhD/Arrow_of_time/hcp_movie_eyetracking-main/movs/MomentsInTime/groups/group4/final_videos2/1_S_yt-r7PeFd-hIp0_378.mp4	193.8187462920323	2.9850447910139337
48	179.2957151250448	fix_post	2		85	46.0	3.0	/Users/shufanzhang/Documents/PhD/Arrow_of_time/hcp_movie_eyetracking-main/movs/MomentsInTime/groups/group4/final_videos2/1_S_yt-r7PeFd-hIp0_378.mp4	196.80379108304624	0.7557214589323848
49	180.0514365839772	fix_pre	0		0	47.0	3.0	/Users/shufanzhang/Documents/PhD/Arrow_of_time/hcp_movie_eyetracking-main/movs/MomentsInTime/groups/group4/final_videos2/1_S_R_yt-YMI27rk5qUQ_117.mp4	197.55951254197862	0.0014188330387696624
49	180.05285541701596	movie	1		358	47.0	3.0	/Users/shufanzhang/Documents/PhD/Arrow_of_time/hcp_movie_eyetracking-main/movs/MomentsInTime/groups/group4/final_videos2/1_S_R_yt-YMI27rk5qUQ_117.mp4	197.5609313750174	3.0029995830263942
49	183.05585500004236	fix_post	2		89	47.0	3.0	/Users/shufanzhang/Documents/PhD/Arrow_of_time/hcp_movie_eyetracking-main/movs/MomentsInTime/groups/group4/final_videos2/1_S_R_yt-YMI27rk5qUQ_117.mp4	200.56393095804378	0.7478217500029132
50	183.80367675004527	fix_pre	0		0	48.0	3.0	/Users/shufanzhang/Documents/PhD/Arrow_of_time/hcp_movie_eyetracking-main/movs/MomentsInTime/groups/group4/final_videos2/1_S_yt-Z1ozMh4szTk_13.mp4	201.3117527080467	0.0018948339857161045
50	183.805571584031	movie	1		359	48.0	3.0	/Users/shufanzhang/Documents/PhD/Arrow_of_time/hcp_movie_eyetracking-main/movs/MomentsInTime/groups/group4/final_videos2/1_S_yt-Z1ozMh4szTk_13.mp4	201.3136475420324	2.9941735829925165
50	186.7997451670235	fix_post	2		89	48.0	3.0	/Users/shufanzhang/Documents/PhD/Arrow_of_time/hcp_movie_eyetracking-main/movs/MomentsInTime/groups/group4/final_videos2/1_S_yt-Z1ozMh4szTk_13.mp4	204.30782112502493	0.7503859170246869
51	187.5501310840482	fix_pre	0		0	49.0	3.0	/Users/shufanzhang/Documents/PhD/Arrow_of_time/hcp_movie_eyetracking-main/movs/MomentsInTime/groups/group4/final_videos2/1_S_yt-hZxbKZ1WCVg_24.mp4	205.05820704204962	0.0014251659158617258
51	187.55155624996405	movie	1		356	49.0	3.0	/Users/shufanzhang/Documents/PhD/Arrow_of_time/hcp_movie_eyetracking-main/movs/MomentsInTime/groups/group4/final_videos2/1_S_yt-hZxbKZ1WCVg_24.mp4	205.05963220796548	3.0039657920133322
51	190.55552204197738	fix_post	2		90	49.0	3.0	/Users/shufanzhang/Documents/PhD/Arrow_of_time/hcp_movie_eyetracking-main/movs/MomentsInTime/groups/group4/final_videos2/1_S_yt-hZxbKZ1WCVg_24.mp4	208.0635979999788	0.7503462500171736
52	191.30586829199456	fix_pre	0		0	50.0	3.0	/Users/shufanzhang/Documents/PhD/Arrow_of_time/hcp_movie_eyetracking-main/movs/MomentsInTime/groups/group4/final_videos2/1_S_ioSkDvwpEaU_35.mp4	208.81394424999598	0.0012909170472994447
52	191.30715920904186	movie	1		353	50.0	3.0	/Users/shufanzhang/Documents/PhD/Arrow_of_time/hcp_movie_eyetracking-main/movs/MomentsInTime/groups/group4/final_videos2/1_S_ioSkDvwpEaU_35.mp4	208.81523516704328	2.992878874996677
52	194.30003808403853	fix_post	2		87	50.0	3.0	/Users/shufanzhang/Documents/PhD/Arrow_of_time/hcp_movie_eyetracking-main/movs/MomentsInTime/groups/group4/final_videos2/1_S_ioSkDvwpEaU_35.mp4	211.80811404203996	0.756534457905218
53	195.05657254194375	fix_pre	0		0	51.0	3.0	/Users/shufanzhang/Documents/PhD/Arrow_of_time/hcp_movie_eyetracking-main/movs/MomentsInTime/groups/group4/final_videos2/2_S_yt-mDil5vGZb14_4049.mp4	212.56464849994518	0.0013662501005455852
53	195.0579387920443	movie	1		359	51.0	3.0	/Users/shufanzhang/Documents/PhD/Arrow_of_time/hcp_movie_eyetracking-main/movs/MomentsInTime/groups/group4/final_videos2/2_S_yt-mDil5vGZb14_4049.mp4	212.56601475004572	2.9976744999876246
53	198.05561329203192	fix_post	2		89	51.0	3.0	/Users/shufanzhang/Documents/PhD/Arrow_of_time/hcp_movie_eyetracking-main/movs/MomentsInTime/groups/group4/final_videos2/2_S_yt-mDil5vGZb14_4049.mp4	215.56368925003335	0.7535319169983268
54	198.80914520903025	fix_pre	0		0	52.0	3.0	/Users/shufanzhang/Documents/PhD/Arrow_of_time/hcp_movie_eyetracking-main/movs/MomentsInTime/groups/group4/final_videos2/2_S_yt-T_qmGKyeKNU_32.mp4	216.31722116703168	0.0015139579772949219
54	198.81065916700754	movie	1		358	52.0	3.0	/Users/shufanzhang/Documents/PhD/Arrow_of_time/hcp_movie_eyetracking-main/movs/MomentsInTime/groups/group4/final_videos2/2_S_yt-T_qmGKyeKNU_32.mp4	216.31873512500897	2.995031917002052
54	201.8056910840096	fix_post	2		88	52.0	3.0	/Users/shufanzhang/Documents/PhD/Arrow_of_time/hcp_movie_eyetracking-main/movs/MomentsInTime/groups/group4/final_videos2/2_S_yt-T_qmGKyeKNU_32.mp4	219.31376704201102	0.7443757499568164
55	202.5500668339664	fix_pre	0		0	53.0	3.0	/Users/shufanzhang/Documents/PhD/Arrow_of_time/hcp_movie_eyetracking-main/movs/MomentsInTime/groups/group4/final_videos2/2_S_R_yt-8N5UuN5WQcY_72.mp4	220.05814279196784	0.0014971659984439611
55	202.55156399996486	movie	1		357	53.0	3.0	/Users/shufanzhang/Documents/PhD/Arrow_of_time/hcp_movie_eyetracking-main/movs/MomentsInTime/groups/group4/final_videos2/2_S_R_yt-8N5UuN5WQcY_72.mp4	220.05963995796628	3.003969917073846
55	205.5555339170387	fix_post	2		89	53.0	3.0	/Users/shufanzhang/Documents/PhD/Arrow_of_time/hcp_movie_eyetracking-main/movs/MomentsInTime/groups/group4/final_videos2/2_S_R_yt-8N5UuN5WQcY_72.mp4	223.06360987504013	0.7488834579708055
56	206.3044173750095	fix_pre	0		0	54.0	3.0	/Users/shufanzhang/Documents/PhD/Arrow_of_time/hcp_movie_eyetracking-main/movs/MomentsInTime/groups/group4/final_videos2/2_S_R_yt-xQilXyNKsBw_42.mp4	223.81249333301093	0.0014392499579116702
56	206.30585662496742	movie	1		359	54.0	3.0	/Users/shufanzhang/Documents/PhD/Arrow_of_time/hcp_movie_eyetracking-main/movs/MomentsInTime/groups/group4/final_videos2/2_S_R_yt-xQilXyNKsBw_42.mp4	223.81393258296885	2.9997580840718
56	209.30561470903922	fix_post	2		89	54.0	3.0	/Users/shufanzhang/Documents/PhD/Arrow_of_time/hcp_movie_eyetracking-main/movs/MomentsInTime/groups/group4/final_videos2/2_S_R_yt-xQilXyNKsBw_42.mp4	226.81369066704065	0.7450784159591421
57	210.05069312499836	fix_pre	0		0	55.0	3.0	/Users/shufanzhang/Documents/PhD/Arrow_of_time/hcp_movie_eyetracking-main/movs/MomentsInTime/groups/group4/final_videos2/1_S_yt-D_f3_HIXG2g_87.mp4	227.5587690829998	0.001308875042013824
57	210.05200200004037	movie	1		356	55.0	3.0	/Users/shufanzhang/Documents/PhD/Arrow_of_time/hcp_movie_eyetracking-main/movs/MomentsInTime/groups/group4/final_videos2/1_S_yt-D_f3_HIXG2g_87.mp4	227.5600779580418	3.003736124956049
57	213.05573812499642	fix_post	2		84	55.0	3.0	/Users/shufanzhang/Documents/PhD/Arrow_of_time/hcp_movie_eyetracking-main/movs/MomentsInTime/groups/group4/final_videos2/1_S_yt-D_f3_HIXG2g_87.mp4	230.56381408299785	0.7445860840380192
58	213.80032420903444	fix_pre	0		0	56.0	3.0	/Users/shufanzhang/Documents/PhD/Arrow_of_time/hcp_movie_eyetracking-main/movs/MomentsInTime/groups/group4/final_videos2/1_S_yt-aiWUhl8MCto_71.mp4	231.30840016703587	0.0014664999907836318
58	213.80179070902523	movie	1		359	56.0	3.0	/Users/shufanzhang/Documents/PhD/Arrow_of_time/hcp_movie_eyetracking-main/movs/MomentsInTime/groups/group4/final_videos2/1_S_yt-aiWUhl8MCto_71.mp4	231.30986666702665	2.997938583022915
58	216.79972929204814	fix_post	2		88	56.0	3.0	/Users/shufanzhang/Documents/PhD/Arrow_of_time/hcp_movie_eyetracking-main/movs/MomentsInTime/groups/group4/final_videos2/1_S_yt-aiWUhl8MCto_71.mp4	234.30780525004957	0.7513842079788446
59	217.551113500027	fix_pre	0		0	57.0	3.0	/Users/shufanzhang/Documents/PhD/Arrow_of_time/hcp_movie_eyetracking-main/movs/MomentsInTime/groups/group4/final_videos2/2_S_yt-BFA07F4L4S0_22.mp4	235.0591894580284	0.0014249589294195175
59	217.5525384589564	movie	1		359	57.0	3.0	/Users/shufanzhang/Documents/PhD/Arrow_of_time/hcp_movie_eyetracking-main/movs/MomentsInTime/groups/group4/final_videos2/2_S_yt-BFA07F4L4S0_22.mp4	235.06061441695783	3.0032206249888986
59	220.5557590839453	fix_post	2		90	57.0	3.0	/Users/shufanzhang/Documents/PhD/Arrow_of_time/hcp_movie_eyetracking-main/movs/MomentsInTime/groups/group4/final_videos2/2_S_yt-BFA07F4L4S0_22.mp4	238.06383504194673	0.7470895000733435
60	221.30284858401865	fix_pre	0		0	58.0	3.0	/Users/shufanzhang/Documents/PhD/Arrow_of_time/hcp_movie_eyetracking-main/movs/MomentsInTime/groups/group4/final_videos2/2_S_yt-aVKIgTiQp9A_29.mp4	238.81092454202008	0.0012127079535275698
60	221.30406129197218	movie	1		356	58.0	3.0	/Users/shufanzhang/Documents/PhD/Arrow_of_time/hcp_movie_eyetracking-main/movs/MomentsInTime/groups/group4/final_videos2/2_S_yt-aVKIgTiQp9A_29.mp4	238.8121372499736	3.0056001250632107
60	224.3096614170354	fix_post	2		86	58.0	3.0	/Users/shufanzhang/Documents/PhD/Arrow_of_time/hcp_movie_eyetracking-main/movs/MomentsInTime/groups/group4/final_videos2/2_S_yt-aVKIgTiQp9A_29.mp4	241.8177373750368	0.7460898329736665
61	225.05575125000905	fix_pre	0		0	59.0	3.0	/Users/shufanzhang/Documents/PhD/Arrow_of_time/hcp_movie_eyetracking-main/movs/MomentsInTime/groups/group4/final_videos2/2_S_R_yt-BCFGCganiuE_8.mp4	242.56382720801048	0.001118500018492341
61	225.05686975002754	movie	1		359	59.0	3.0	/Users/shufanzhang/Documents/PhD/Arrow_of_time/hcp_movie_eyetracking-main/movs/MomentsInTime/groups/group4/final_videos2/2_S_R_yt-BCFGCganiuE_8.mp4	242.56494570802897	2.988372249994427
61	228.04524200002197	fix_post	2		90	59.0	3.0	/Users/shufanzhang/Documents/PhD/Arrow_of_time/hcp_movie_eyetracking-main/movs/MomentsInTime/groups/group4/final_videos2/2_S_R_yt-BCFGCganiuE_8.mp4	245.5533179580234	0.7536217089509591
62	228.79886370897293	fix_pre	0		0	60.0	3.0	/Users/shufanzhang/Documents/PhD/Arrow_of_time/hcp_movie_eyetracking-main/movs/MomentsInTime/groups/group4/final_videos2/2_S_yt-kKRGgUhVRzc_74.mp4	246.30693966697436	0.0017330000409856439
62	228.80059670901392	movie	1		359	60.0	3.0	/Users/shufanzhang/Documents/PhD/Arrow_of_time/hcp_movie_eyetracking-main/movs/MomentsInTime/groups/group4/final_videos2/2_S_yt-kKRGgUhVRzc_74.mp4	246.30867266701534	3.0006831659702584
62	231.80127987498417	fix_post	2		92	60.0	3.0	/Users/shufanzhang/Documents/PhD/Arrow_of_time/hcp_movie_eyetracking-main/movs/MomentsInTime/groups/group4/final_videos2/2_S_yt-kKRGgUhVRzc_74.mp4	249.3093558329856	0.7484736670739949
63	232.54975354205817	fix_pre	0		0	61.0	3.0	/Users/shufanzhang/Documents/PhD/Arrow_of_time/hcp_movie_eyetracking-main/movs/MomentsInTime/groups/group4/final_videos2/2_S_R_yt-7WYXuBHeorw_188.mp4	250.0578295000596	0.0014349579578265548
63	232.551188500016	movie	1		357	61.0	3.0	/Users/shufanzhang/Documents/PhD/Arrow_of_time/hcp_movie_eyetracking-main/movs/MomentsInTime/groups/group4/final_videos2/2_S_R_yt-7WYXuBHeorw_188.mp4	250.05926445801742	3.004708333988674
63	235.55589683400467	fix_post	2		89	61.0	3.0	/Users/shufanzhang/Documents/PhD/Arrow_of_time/hcp_movie_eyetracking-main/movs/MomentsInTime/groups/group4/final_videos2/2_S_R_yt-7WYXuBHeorw_188.mp4	253.0639727920061	0.7502464579883963
64	236.30614329199307	fix_pre	0		0	62.0	3.0	/Users/shufanzhang/Documents/PhD/Arrow_of_time/hcp_movie_eyetracking-main/movs/MomentsInTime/groups/group4/final_videos2/1_S_yt-KV8X9IBWuJk_48.mp4	253.8142192499945	0.0015102500328794122
64	236.30765354202595	movie	1		359	62.0	3.0	/Users/shufanzhang/Documents/PhD/Arrow_of_time/hcp_movie_eyetracking-main/movs/MomentsInTime/groups/group4/final_videos2/1_S_yt-KV8X9IBWuJk_48.mp4	253.81572950002737	2.998177291941829
64	239.30583083396778	fix_post	2		89	62.0	3.0	/Users/shufanzhang/Documents/PhD/Arrow_of_time/hcp_movie_eyetracking-main/movs/MomentsInTime/groups/group4/final_videos2/1_S_yt-KV8X9IBWuJk_48.mp4	256.8139067919692	0.7458360410528257
65	240.0516668750206	fix_pre	0		0	63.0	3.0	/Users/shufanzhang/Documents/PhD/Arrow_of_time/hcp_movie_eyetracking-main/movs/MomentsInTime/groups/group4/final_videos2/1_S_yt-hHdxZ26SImA_17.mp4	257.559742833022	0.001512999995611608
65	240.0531798750162	movie	1		358	63.0	3.0	/Users/shufanzhang/Documents/PhD/Arrow_of_time/hcp_movie_eyetracking-main/movs/MomentsInTime/groups/group4/final_videos2/1_S_yt-hHdxZ26SImA_17.mp4	257.56125583301764	2.9963812499772757
65	243.0495611249935	fix_post	2		89	63.0	3.0	/Users/shufanzhang/Documents/PhD/Arrow_of_time/hcp_movie_eyetracking-main/movs/MomentsInTime/groups/group4/final_videos2/1_S_yt-hHdxZ26SImA_17.mp4	260.5576370829949	0.749897375004366
66	243.79945849999785	fix_pre	0		0	64.0	3.0	/Users/shufanzhang/Documents/PhD/Arrow_of_time/hcp_movie_eyetracking-main/movs/MomentsInTime/groups/group4/final_videos2/1_S_yt-e5ua5Pj86E4_140.mp4	261.3075344579993	0.0014450839953497052
66	243.8009035839932	movie	1		359	64.0	3.0	/Users/shufanzhang/Documents/PhD/Arrow_of_time/hcp_movie_eyetracking-main/movs/MomentsInTime/groups/group4/final_videos2/1_S_yt-e5ua5Pj86E4_140.mp4	261.30897954199463	2.998893790994771
66	246.79979737498797	fix_post	2		85	64.0	3.0	/Users/shufanzhang/Documents/PhD/Arrow_of_time/hcp_movie_eyetracking-main/movs/MomentsInTime/groups/group4/final_videos2/1_S_yt-e5ua5Pj86E4_140.mp4	264.3078733329894	0.7518800420220941
67	247.55167741701007	fix_pre	0		0	65.0	3.0	/Users/shufanzhang/Documents/PhD/Arrow_of_time/hcp_movie_eyetracking-main/movs/MomentsInTime/groups/group4/final_videos2/1_S_R_yt-jgt0PVBUK1Y_580.mp4	265.0597533750115	0.0015242500230669975
67	247.55320166703314	movie	1		360	65.0	3.0	/Users/shufanzhang/Documents/PhD/Arrow_of_time/hcp_movie_eyetracking-main/movs/MomentsInTime/groups/group4/final_videos2/1_S_R_yt-jgt0PVBUK1Y_580.mp4	265.06127762503456	3.0063717499142513
67	250.5595734169474	fix_post	2		88	65.0	3.0	/Users/shufanzhang/Documents/PhD/Arrow_of_time/hcp_movie_eyetracking-main/movs/MomentsInTime/groups/group4/final_videos2/1_S_R_yt-jgt0PVBUK1Y_580.mp4	268.0676493749488	0.7424014580901712
68	251.30197487503756	fix_pre	0		0	66.0	3.0	/Users/shufanzhang/Documents/PhD/Arrow_of_time/hcp_movie_eyetracking-main/movs/MomentsInTime/groups/group4/final_videos2/2_S_yt-pKl8nduxfTI_798.mp4	268.810050833039	0.0016277499962598085
68	251.30360262503382	movie	1		360	66.0	3.0	/Users/shufanzhang/Documents/PhD/Arrow_of_time/hcp_movie_eyetracking-main/movs/MomentsInTime/groups/group4/final_videos2/2_S_yt-pKl8nduxfTI_798.mp4	268.81167858303525	2.9977171249920502
68	254.30131975002587	fix_post	2		89	66.0	3.0	/Users/shufanzhang/Documents/PhD/Arrow_of_time/hcp_movie_eyetracking-main/movs/MomentsInTime/groups/group4/final_videos2/2_S_yt-pKl8nduxfTI_798.mp4	271.8093957080273	0.7489331249380484
69	255.05025287496392	fix_pre	0		0	67.0	3.0	/Users/shufanzhang/Documents/PhD/Arrow_of_time/hcp_movie_eyetracking-main/movs/MomentsInTime/groups/group4/final_videos2/2_S_bing-www_break_com_video_like-a-cat-catching-a-fly-3131008_12.mp4	272.55832883296534	0.0016645840369164944
69	255.05191745900083	movie	1		359	67.0	3.0	/Users/shufanzhang/Documents/PhD/Arrow_of_time/hcp_movie_eyetracking-main/movs/MomentsInTime/groups/group4/final_videos2/2_S_bing-www_break_com_video_like-a-cat-catching-a-fly-3131008_12.mp4	272.55999341700226	2.993571124970913
69	258.04548858397175	fix_post	2		86	67.0	3.0	/Users/shufanzhang/Documents/PhD/Arrow_of_time/hcp_movie_eyetracking-main/movs/MomentsInTime/groups/group4/final_videos2/2_S_bing-www_break_com_video_like-a-cat-catching-a-fly-3131008_12.mp4	275.5535645419732	0.7595577500760555
70	258.8050463340478	fix_pre	0		0	68.0	3.0	/Users/shufanzhang/Documents/PhD/Arrow_of_time/hcp_movie_eyetracking-main/movs/MomentsInTime/groups/group4/final_videos2/1_S_yt-Xegmd8whqBs_230.mp4	276.31312229204923	0.001453540986403823
70	258.8064998750342	movie	1		357	68.0	3.0	/Users/shufanzhang/Documents/PhD/Arrow_of_time/hcp_movie_eyetracking-main/movs/MomentsInTime/groups/group4/final_videos2/1_S_yt-Xegmd8whqBs_230.mp4	276.31457583303563	2.99467816692777
70	261.801178041962	fix_post	2		89	68.0	3.0	/Users/shufanzhang/Documents/PhD/Arrow_of_time/hcp_movie_eyetracking-main/movs/MomentsInTime/groups/group4/final_videos2/1_S_yt-Xegmd8whqBs_230.mp4	279.3092539999634	0.7697269580094144
71	262.5709049999714	fix_pre	0		0	69.0	3.0	/Users/shufanzhang/Documents/PhD/Arrow_of_time/hcp_movie_eyetracking-main/movs/MomentsInTime/groups/group4/final_videos2/2_S_yt-tDRPy0Rj6AU_141.mp4	280.0789809579728	0.002336209057830274
71	262.5732412090292	movie	1		357	69.0	3.0	/Users/shufanzhang/Documents/PhD/Arrow_of_time/hcp_movie_eyetracking-main/movs/MomentsInTime/groups/group4/final_videos2/2_S_yt-tDRPy0Rj6AU_141.mp4	280.08131716703065	2.9722710410133004
71	265.5455122500425	fix_post	2		91	69.0	3.0	/Users/shufanzhang/Documents/PhD/Arrow_of_time/hcp_movie_eyetracking-main/movs/MomentsInTime/groups/group4/final_videos2/2_S_yt-tDRPy0Rj6AU_141.mp4	283.05358820804395	0.7641344999428838
72	266.3096467499854	fix_pre	0		0	70.0	3.0	/Users/shufanzhang/Documents/PhD/Arrow_of_time/hcp_movie_eyetracking-main/movs/MomentsInTime/groups/group4/final_videos2/2_S_yt-31yLemkW42Q_111.mp4	283.81772270798683	0.0009392090141773224
72	266.3105859589996	movie	1		360	70.0	3.0	/Users/shufanzhang/Documents/PhD/Arrow_of_time/hcp_movie_eyetracking-main/movs/MomentsInTime/groups/group4/final_videos2/2_S_yt-31yLemkW42Q_111.mp4	283.818661917001	2.999131541000679
72	269.30971750000026	fix_post	2		88	70.0	3.0	/Users/shufanzhang/Documents/PhD/Arrow_of_time/hcp_movie_eyetracking-main/movs/MomentsInTime/groups/group4/final_videos2/2_S_yt-31yLemkW42Q_111.mp4	286.8177934580017	0.741436916985549
73	270.0511544169858	fix_pre	0		0	71.0	3.0	/Users/shufanzhang/Documents/PhD/Arrow_of_time/hcp_movie_eyetracking-main/movs/MomentsInTime/groups/group4/final_videos2/1_S_R_yt-LKd9mHnUVUQ_230.mp4	287.55923037498724	0.0009485420305281878
73	270.05210295901634	movie	1		360	71.0	3.0	/Users/shufanzhang/Documents/PhD/Arrow_of_time/hcp_movie_eyetracking-main/movs/MomentsInTime/groups/group4/final_videos2/1_S_R_yt-LKd9mHnUVUQ_230.mp4	287.56017891701777	2.9931860000360757
73	273.0452889590524	fix_post	2		88	71.0	3.0	/Users/shufanzhang/Documents/PhD/Arrow_of_time/hcp_movie_eyetracking-main/movs/MomentsInTime/groups/group4/final_videos2/1_S_R_yt-LKd9mHnUVUQ_230.mp4	290.55336491705384	0.7560009579174221
74	273.80128991696984	fix_pre	0		0	72.0	3.0	/Users/shufanzhang/Documents/PhD/Arrow_of_time/hcp_movie_eyetracking-main/movs/MomentsInTime/groups/group4/final_videos2/2_S_R_yt-VJ65ukWmdxQ_193.mp4	291.30936587497126	0.0014564170269295573
74	273.80274633399677	movie	1		356	72.0	3.0	/Users/shufanzhang/Documents/PhD/Arrow_of_time/hcp_movie_eyetracking-main/movs/MomentsInTime/groups/group4/final_videos2/2_S_R_yt-VJ65ukWmdxQ_193.mp4	291.3108222919982	2.998532291036099
74	276.80127862503286	fix_post	2		88	72.0	3.0	/Users/shufanzhang/Documents/PhD/Arrow_of_time/hcp_movie_eyetracking-main/movs/MomentsInTime/groups/group4/final_videos2/2_S_R_yt-VJ65ukWmdxQ_193.mp4	294.3093545830343	0.7680162920150906
75	277.56929491704796	fix_pre	0		0	73.0	3.0	/Users/shufanzhang/Documents/PhD/Arrow_of_time/hcp_movie_eyetracking-main/movs/MomentsInTime/groups/group4/final_videos2/1_S_yt-5doJmCcFL7s_3.mp4	295.0773708750494	0.0033416670048609376
75	277.5726365840528	movie	1		357	73.0	3.0	/Users/shufanzhang/Documents/PhD/Arrow_of_time/hcp_movie_eyetracking-main/movs/MomentsInTime/groups/group4/final_videos2/1_S_yt-5doJmCcFL7s_3.mp4	295.08071254205424	2.9770761659601703
75	280.549712750013	fix_post	2		89	73.0	3.0	/Users/shufanzhang/Documents/PhD/Arrow_of_time/hcp_movie_eyetracking-main/movs/MomentsInTime/groups/group4/final_videos2/1_S_yt-5doJmCcFL7s_3.mp4	298.0577887080144	0.7529942919500172
76	281.302707041963	fix_pre	0		0	74.0	3.0	/Users/shufanzhang/Documents/PhD/Arrow_of_time/hcp_movie_eyetracking-main/movs/MomentsInTime/groups/group4/final_videos2/2_S_yt-GI8BEHw2Lq8_3.mp4	298.81078299996443	0.001266125007532537
76	281.30397316697054	movie	1		356	74.0	3.0	/Users/shufanzhang/Documents/PhD/Arrow_of_time/hcp_movie_eyetracking-main/movs/MomentsInTime/groups/group4/final_videos2/2_S_yt-GI8BEHw2Lq8_3.mp4	298.81204912497196	2.99144083308056
76	284.2954140000511	fix_post	2		89	74.0	3.0	/Users/shufanzhang/Documents/PhD/Arrow_of_time/hcp_movie_eyetracking-main/movs/MomentsInTime/groups/group4/final_videos2/2_S_yt-GI8BEHw2Lq8_3.mp4	301.8034899580525	0.7643187089124694
77	285.05973270896357	fix_pre	0		0	75.0	3.0	/Users/shufanzhang/Documents/PhD/Arrow_of_time/hcp_movie_eyetracking-main/movs/MomentsInTime/groups/group4/final_videos2/2_S_R_yt--C2DDZ7LOQA_95.mp4	302.567808666965	0.0015141660114750266
77	285.06124687497504	movie	1		358	75.0	3.0	/Users/shufanzhang/Documents/PhD/Arrow_of_time/hcp_movie_eyetracking-main/movs/MomentsInTime/groups/group4/final_videos2/2_S_R_yt--C2DDZ7LOQA_95.mp4	302.56932283297647	2.9848636250244454
77	288.0461104999995	fix_post	2		90	75.0	3.0	/Users/shufanzhang/Documents/PhD/Arrow_of_time/hcp_movie_eyetracking-main/movs/MomentsInTime/groups/group4/final_videos2/2_S_R_yt--C2DDZ7LOQA_95.mp4	305.5541864580009	0.7659285420086235
78	288.8120390420081	fix_pre	0		0	76.0	3.0	/Users/shufanzhang/Documents/PhD/Arrow_of_time/hcp_movie_eyetracking-main/movs/MomentsInTime/groups/group4/final_videos2/1_S_yt-GI8BEHw2Lq8_3.mp4	306.32011500000954	0.0008845420088618994
78	288.81292358401697	movie	1		358	76.0	3.0	/Users/shufanzhang/Documents/PhD/Arrow_of_time/hcp_movie_eyetracking-main/movs/MomentsInTime/groups/group4/final_videos2/1_S_yt-GI8BEHw2Lq8_3.mp4	306.3209995420184	2.9882424159441143
78	291.8011659999611	fix_post	2		88	76.0	3.0	/Users/shufanzhang/Documents/PhD/Arrow_of_time/hcp_movie_eyetracking-main/movs/MomentsInTime/groups/group4/final_videos2/1_S_yt-GI8BEHw2Lq8_3.mp4	309.3092419579625	0.7535940420348197
79	292.5547600419959	fix_pre	0		0	77.0	3.0	/Users/shufanzhang/Documents/PhD/Arrow_of_time/hcp_movie_eyetracking-main/movs/MomentsInTime/groups/group4/final_videos2/1_S_R_yt-ycfVJyrFgB4_15.mp4	310.06283599999733	0.0014492920599877834
79	292.5562093340559	movie	1		358	77.0	3.0	/Users/shufanzhang/Documents/PhD/Arrow_of_time/hcp_movie_eyetracking-main/movs/MomentsInTime/groups/group4/final_videos2/1_S_R_yt-ycfVJyrFgB4_15.mp4	310.0642852920573	2.995015957974829
79	295.5512252920307	fix_post	2		89	77.0	3.0	/Users/shufanzhang/Documents/PhD/Arrow_of_time/hcp_movie_eyetracking-main/movs/MomentsInTime/groups/group4/final_videos2/1_S_R_yt-ycfVJyrFgB4_15.mp4	313.05930125003215	0.7506083749467507
80	296.3018336669775	fix_pre	0		0	78.0	3.0	/Users/shufanzhang/Documents/PhD/Arrow_of_time/hcp_movie_eyetracking-main/movs/MomentsInTime/groups/group4/final_videos2/2_S_R_yt-H-2Vvouw9VI_85.mp4	313.8099096249789	0.0012751250760629773
80	296.30310879205354	movie	1		359	78.0	3.0	/Users/shufanzhang/Documents/PhD/Arrow_of_time/hcp_movie_eyetracking-main/movs/MomentsInTime/groups/group4/final_videos2/2_S_R_yt-H-2Vvouw9VI_85.mp4	313.81118475005496	2.9923661669017747
80	299.2954749589553	fix_post	2		89	78.0	3.0	/Users/shufanzhang/Documents/PhD/Arrow_of_time/hcp_movie_eyetracking-main/movs/MomentsInTime/groups/group4/final_videos2/2_S_R_yt-H-2Vvouw9VI_85.mp4	316.80355091695674	0.7542929160408676
81	300.0497678749962	fix_pre	0		0	79.0	3.0	/Users/shufanzhang/Documents/PhD/Arrow_of_time/hcp_movie_eyetracking-main/movs/MomentsInTime/groups/group4/final_videos2/2_S_yt-NQSCGMpo-p8_118.mp4	317.5578438329976	0.001607083948329091
81	300.0513749589445	movie	1		359	79.0	3.0	/Users/shufanzhang/Documents/PhD/Arrow_of_time/hcp_movie_eyetracking-main/movs/MomentsInTime/groups/group4/final_videos2/2_S_yt-NQSCGMpo-p8_118.mp4	317.55945091694593	2.993788000079803
81	303.0451629590243	fix_post	2		87	79.0	3.0	/Users/shufanzhang/Documents/PhD/Arrow_of_time/hcp_movie_eyetracking-main/movs/MomentsInTime/groups/group4/final_videos2/2_S_yt-NQSCGMpo-p8_118.mp4	320.55323891702574	0.7539077500114217
82	303.79907070903573	fix_pre	0		0	80.0	3.0	/Users/shufanzhang/Documents/PhD/Arrow_of_time/hcp_movie_eyetracking-main/movs/MomentsInTime/groups/group4/final_videos2/2_S_R_yt-w_e3sxIzepA_27.mp4	321.30714666703716	0.00151162501424551
82	303.80058233405	movie	1		361	80.0	3.0	/Users/shufanzhang/Documents/PhD/Arrow_of_time/hcp_movie_eyetracking-main/movs/MomentsInTime/groups/group4/final_videos2/2_S_R_yt-w_e3sxIzepA_27.mp4	321.3086582920514	3.008904790971428
82	306.8094871250214	fix_post	2		84	80.0	3.0	/Users/shufanzhang/Documents/PhD/Arrow_of_time/hcp_movie_eyetracking-main/movs/MomentsInTime/groups/group4/final_videos2/2_S_R_yt-w_e3sxIzepA_27.mp4	324.31756308302283	0.7451074590208009
83	307.5545945840422	fix_pre	0		0	81.0	3.0	/Users/shufanzhang/Documents/PhD/Arrow_of_time/hcp_movie_eyetracking-main/movs/MomentsInTime/groups/group4/final_videos2/1_S_R_yt-Dwgpjoikt84_122.mp4	325.06267054204363	0.001457915990613401
83	307.5560525000328	movie	1		358	81.0	3.0	/Users/shufanzhang/Documents/PhD/Arrow_of_time/hcp_movie_eyetracking-main/movs/MomentsInTime/groups/group4/final_videos2/1_S_R_yt-Dwgpjoikt84_122.mp4	325.06412845803425	2.9891646669711918
83	310.545217167004	fix_post	2		91	81.0	3.0	/Users/shufanzhang/Documents/PhD/Arrow_of_time/hcp_movie_eyetracking-main/movs/MomentsInTime/groups/group4/final_videos2/1_S_R_yt-Dwgpjoikt84_122.mp4	328.05329312500544	0.76446695800405
84	311.30968412500806	fix_pre	0		0	82.0	3.0	/Users/shufanzhang/Documents/PhD/Arrow_of_time/hcp_movie_eyetracking-main/movs/MomentsInTime/groups/group4/final_videos2/1_S_yt-JLXUWZPY-xA_88.mp4	328.8177600830095	0.0013182919938117266
84	311.3110024170019	movie	1		358	82.0	3.0	/Users/shufanzhang/Documents/PhD/Arrow_of_time/hcp_movie_eyetracking-main/movs/MomentsInTime/groups/group4/final_videos2/1_S_yt-JLXUWZPY-xA_88.mp4	328.8190783750033	2.984678667038679
84	314.29568108404055	fix_post	2		89	82.0	3.0	/Users/shufanzhang/Documents/PhD/Arrow_of_time/hcp_movie_eyetracking-main/movs/MomentsInTime/groups/group4/final_videos2/1_S_yt-JLXUWZPY-xA_88.mp4	331.803757042042	0.7637118329294026
85	315.05939291696995	fix_pre	0		0	83.0	3.0	/Users/shufanzhang/Documents/PhD/Arrow_of_time/hcp_movie_eyetracking-main/movs/MomentsInTime/groups/group4/final_videos2/1_S_R_yt-jfPayShydzE_1233.mp4	332.5674688749714	0.0018263329984620214
85	315.0612192499684	movie	1		359	83.0	3.0	/Users/shufanzhang/Documents/PhD/Arrow_of_time/hcp_movie_eyetracking-main/movs/MomentsInTime/groups/group4/final_videos2/1_S_R_yt-jfPayShydzE_1233.mp4	332.56929520796984	2.9982288340106606
85	318.0594480839791	fix_post	2		89	83.0	3.0	/Users/shufanzhang/Documents/PhD/Arrow_of_time/hcp_movie_eyetracking-main/movs/MomentsInTime/groups/group4/final_videos2/1_S_R_yt-jfPayShydzE_1233.mp4	335.5675240419805	0.7541268750792369
86	318.8135749590583	fix_pre	0		0	84.0	3.0	/Users/shufanzhang/Documents/PhD/Arrow_of_time/hcp_movie_eyetracking-main/movs/MomentsInTime/groups/group4/final_videos2/1_S_R_yt-nfDPFHUDq8g_136.mp4	336.32165091705974	0.001486875000409782
86	318.8150618340587	movie	1		357	84.0	3.0	/Users/shufanzhang/Documents/PhD/Arrow_of_time/hcp_movie_eyetracking-main/movs/MomentsInTime/groups/group4/final_videos2/1_S_R_yt-nfDPFHUDq8g_136.mp4	336.32313779206015	2.99440920795314
86	321.80947104201186	fix_post	2		89	84.0	3.0	/Users/shufanzhang/Documents/PhD/Arrow_of_time/hcp_movie_eyetracking-main/movs/MomentsInTime/groups/group4/final_videos2/1_S_R_yt-nfDPFHUDq8g_136.mp4	339.3175470000133	0.7533351250458509
87	322.5628061670577	fix_pre	0		0	85.0	3.0	/Users/shufanzhang/Documents/PhD/Arrow_of_time/hcp_movie_eyetracking-main/movs/MomentsInTime/groups/group4/final_videos2/2_S_yt-gCKmHV5tdSk_59.mp4	340.07088212505914	0.0014527079183608294
87	322.5642588749761	movie	1		357	85.0	3.0	/Users/shufanzhang/Documents/PhD/Arrow_of_time/hcp_movie_eyetracking-main/movs/MomentsInTime/groups/group4/final_videos2/2_S_yt-gCKmHV5tdSk_59.mp4	340.0723348329775	2.9868521250318736
87	325.55111100000795	fix_post	2		87	85.0	3.0	/Users/shufanzhang/Documents/PhD/Arrow_of_time/hcp_movie_eyetracking-main/movs/MomentsInTime/groups/group4/final_videos2/2_S_yt-gCKmHV5tdSk_59.mp4	343.0591869580094	0.7502666249638423
88	326.3013776249718	fix_pre	0		0	86.0	3.0	/Users/shufanzhang/Documents/PhD/Arrow_of_time/hcp_movie_eyetracking-main/movs/MomentsInTime/groups/group4/final_videos2/1_S_R_yt-7sD6zc169Xo_77.mp4	343.8094535829732	0.0012880840804427862
88	326.30266570905223	movie	1		358	86.0	3.0	/Users/shufanzhang/Documents/PhD/Arrow_of_time/hcp_movie_eyetracking-main/movs/MomentsInTime/groups/group4/final_videos2/1_S_R_yt-7sD6zc169Xo_77.mp4	343.81074166705366	2.9984320829389617
88	329.3010977919912	fix_post	2		89	86.0	3.0	/Users/shufanzhang/Documents/PhD/Arrow_of_time/hcp_movie_eyetracking-main/movs/MomentsInTime/groups/group4/final_videos2/1_S_R_yt-7sD6zc169Xo_77.mp4	346.8091737499926	0.7531155829783529
89	330.05421337496955	fix_pre	0		0	87.0	3.0	/Users/shufanzhang/Documents/PhD/Arrow_of_time/hcp_movie_eyetracking-main/movs/MomentsInTime/groups/group4/final_videos2/1_S_R_AWfiZJsMWQg_99.mp4	347.562289332971	0.0014532500645145774
89	330.05566662503406	movie	1		356	87.0	3.0	/Users/shufanzhang/Documents/PhD/Arrow_of_time/hcp_movie_eyetracking-main/movs/MomentsInTime/groups/group4/final_videos2/1_S_R_AWfiZJsMWQg_99.mp4	347.5637425830355	2.98962358396966
89	333.0452902090037	fix_post	2		85	87.0	3.0	/Users/shufanzhang/Documents/PhD/Arrow_of_time/hcp_movie_eyetracking-main/movs/MomentsInTime/groups/group4/final_videos2/1_S_R_AWfiZJsMWQg_99.mp4	350.55336616700515	0.768212707946077
90	333.8135029169498	fix_pre	0		0	88.0	3.0	/Users/shufanzhang/Documents/PhD/Arrow_of_time/hcp_movie_eyetracking-main/movs/MomentsInTime/groups/group4/final_videos2/2_S_R_flickr-hapanine-31880782705_22.mp4	351.32157887495123	0.0014947500312700868
90	333.81499766698107	movie	1		355	88.0	3.0	/Users/shufanzhang/Documents/PhD/Arrow_of_time/hcp_movie_eyetracking-main/movs/MomentsInTime/groups/group4/final_videos2/2_S_R_flickr-hapanine-31880782705_22.mp4	351.3230736249825	2.9902659580111504
90	336.8052636249922	fix_post	2		89	88.0	3.0	/Users/shufanzhang/Documents/PhD/Arrow_of_time/hcp_movie_eyetracking-main/movs/MomentsInTime/groups/group4/final_videos2/2_S_R_flickr-hapanine-31880782705_22.mp4	354.31333958299365	0.7612003750400618
91	337.5664640000323	fix_pre	0		0	89.0	3.0	/Users/shufanzhang/Documents/PhD/Arrow_of_time/hcp_movie_eyetracking-main/movs/MomentsInTime/groups/group4/final_videos2/2_S_R_yt-V_2XgfjJfeQ_67.mp4	355.0745399580337	0.003005708917044103
91	337.5694697089493	movie	1		358	89.0	3.0	/Users/shufanzhang/Documents/PhD/Arrow_of_time/hcp_movie_eyetracking-main/movs/MomentsInTime/groups/group4/final_videos2/2_S_R_yt-V_2XgfjJfeQ_67.mp4	355.07754566695075	2.980099291075021
91	340.54956900002435	fix_post	2		90	89.0	3.0	/Users/shufanzhang/Documents/PhD/Arrow_of_time/hcp_movie_eyetracking-main/movs/MomentsInTime/groups/group4/final_videos2/2_S_R_yt-V_2XgfjJfeQ_67.mp4	358.0576449580258	0.756432291935198
92	341.30600129195955	fix_pre	0		0	90.0	3.0	/Users/shufanzhang/Documents/PhD/Arrow_of_time/hcp_movie_eyetracking-main/movs/MomentsInTime/groups/group4/final_videos2/2_S_R_yt-xNKgc8sFYvU_35.mp4	358.814077249961	0.0016655420185998082
92	341.30766683397815	movie	1		359	90.0	3.0	/Users/shufanzhang/Documents/PhD/Arrow_of_time/hcp_movie_eyetracking-main/movs/MomentsInTime/groups/group4/final_videos2/2_S_R_yt-xNKgc8sFYvU_35.mp4	358.8157427919796	2.9920514160767198
92	344.29971825005487	fix_post	2		89	90.0	3.0	/Users/shufanzhang/Documents/PhD/Arrow_of_time/hcp_movie_eyetracking-main/movs/MomentsInTime/groups/group4/final_videos2/2_S_R_yt-xNKgc8sFYvU_35.mp4	361.8077942080563	0.7509319999953732
93	345.05065025005024	fix_pre	0		0	91.0	3.0	/Users/shufanzhang/Documents/PhD/Arrow_of_time/hcp_movie_eyetracking-main/movs/MomentsInTime/groups/group4/final_videos2/1_S_yt-mWlx1SIXl5M_850.mp4	362.55872620805167	0.0014389589196071029
93	345.05208920896985	movie	1		356	91.0	3.0	/Users/shufanzhang/Documents/PhD/Arrow_of_time/hcp_movie_eyetracking-main/movs/MomentsInTime/groups/group4/final_videos2/1_S_yt-mWlx1SIXl5M_850.mp4	362.5601651669713	2.9973759580170736
93	348.0494651669869	fix_post	2		89	91.0	3.0	/Users/shufanzhang/Documents/PhD/Arrow_of_time/hcp_movie_eyetracking-main/movs/MomentsInTime/groups/group4/final_videos2/1_S_yt-mWlx1SIXl5M_850.mp4	365.55754112498835	0.7556646249722689
94	348.8051297919592	fix_pre	0		0	92.0	3.0	/Users/shufanzhang/Documents/PhD/Arrow_of_time/hcp_movie_eyetracking-main/movs/MomentsInTime/groups/group4/final_videos2/2_S_R_yt-Ndwek2tpIOA_169.mp4	366.3132057499606	0.0017886670539155602
94	348.8069184590131	movie	1		359	92.0	3.0	/Users/shufanzhang/Documents/PhD/Arrow_of_time/hcp_movie_eyetracking-main/movs/MomentsInTime/groups/group4/final_videos2/2_S_R_yt-Ndwek2tpIOA_169.mp4	366.31499441701453	2.998307832982391
94	351.8052262919955	fix_post	2		89	92.0	3.0	/Users/shufanzhang/Documents/PhD/Arrow_of_time/hcp_movie_eyetracking-main/movs/MomentsInTime/groups/group4/final_videos2/2_S_R_yt-Ndwek2tpIOA_169.mp4	369.3133022499969	0.7504279999993742
95	352.55565429199487	fix_pre	0		0	93.0	3.0	/Users/shufanzhang/Documents/PhD/Arrow_of_time/hcp_movie_eyetracking-main/movs/MomentsInTime/groups/group4/final_videos2/1_S_yt-7n_ndwObq_54.mp4	370.0637302499963	0.0016720830462872982
95	352.55732637504116	movie	1		359	93.0	3.0	/Users/shufanzhang/Documents/PhD/Arrow_of_time/hcp_movie_eyetracking-main/movs/MomentsInTime/groups/group4/final_videos2/1_S_yt-7n_ndwObq_54.mp4	370.0654023330426	2.993832499952987
95	355.55115887499414	fix_post	2		91	93.0	3.0	/Users/shufanzhang/Documents/PhD/Arrow_of_time/hcp_movie_eyetracking-main/movs/MomentsInTime/groups/group4/final_videos2/1_S_yt-7n_ndwObq_54.mp4	373.05923483299557	0.758626208989881
96	356.309785083984	fix_pre	0		0	94.0	3.0	/Users/shufanzhang/Documents/PhD/Arrow_of_time/hcp_movie_eyetracking-main/movs/MomentsInTime/groups/group4/final_videos2/1_S_yt-sxZ_ONShI7U_75.mp4	373.81786104198545	0.0016895410371944308
96	356.3114746250212	movie	1		359	94.0	3.0	/Users/shufanzhang/Documents/PhD/Arrow_of_time/hcp_movie_eyetracking-main/movs/MomentsInTime/groups/group4/final_videos2/1_S_yt-sxZ_ONShI7U_75.mp4	373.81955058302265	2.9979975839378312
96	359.30947220895905	fix_post	2		88	94.0	3.0	/Users/shufanzhang/Documents/PhD/Arrow_of_time/hcp_movie_eyetracking-main/movs/MomentsInTime/groups/group4/final_videos2/1_S_yt-sxZ_ONShI7U_75.mp4	376.8175481669605	0.7680192079860717
97	360.0774914169451	fix_pre	0		0	95.0	3.0	/Users/shufanzhang/Documents/PhD/Arrow_of_time/hcp_movie_eyetracking-main/movs/MomentsInTime/groups/group4/final_videos2/1_S_yt-rIQoRErqnlI_17.mp4	377.58556737494655	0.004222625051625073
97	360.08171404199675	movie	1		357	95.0	3.0	/Users/shufanzhang/Documents/PhD/Arrow_of_time/hcp_movie_eyetracking-main/movs/MomentsInTime/groups/group4/final_videos2/1_S_yt-rIQoRErqnlI_17.mp4	377.5897899999982	2.977756457985379
97	363.0594704999821	fix_post	2		88	95.0	3.0	/Users/shufanzhang/Documents/PhD/Arrow_of_time/hcp_movie_eyetracking-main/movs/MomentsInTime/groups/group4/final_videos2/1_S_yt-rIQoRErqnlI_17.mp4	380.56754645798355	0.7363267090404406
98	363.79579720902257	fix_pre	0		0	96.0	3.0	/Users/shufanzhang/Documents/PhD/Arrow_of_time/hcp_movie_eyetracking-main/movs/MomentsInTime/groups/group4/final_videos2/1_S_yt-y6zr69M0yHI_76.mp4	381.303873167024	0.0014647500356659293
98	363.79726195905823	movie	1		356	96.0	3.0	/Users/shufanzhang/Documents/PhD/Arrow_of_time/hcp_movie_eyetracking-main/movs/MomentsInTime/groups/group4/final_videos2/1_S_yt-y6zr69M0yHI_76.mp4	381.30533791705966	3.0037616658955812
98	366.8010236249538	fix_post	2		90	96.0	3.0	/Users/shufanzhang/Documents/PhD/Arrow_of_time/hcp_movie_eyetracking-main/movs/MomentsInTime/groups/group4/final_videos2/1_S_yt-y6zr69M0yHI_76.mp4	384.30909958295524	0.7495574590284377
99	367.55058108398225	fix_pre	0		0	97.0	3.0	/Users/shufanzhang/Documents/PhD/Arrow_of_time/hcp_movie_eyetracking-main/movs/MomentsInTime/groups/group4/final_videos2/2_S_R_yt-n_eO-7KedAE_21.mp4	385.0586570419837	0.0016597909852862358
99	367.55224087496754	movie	1		359	97.0	3.0	/Users/shufanzhang/Documents/PhD/Arrow_of_time/hcp_movie_eyetracking-main/movs/MomentsInTime/groups/group4/final_videos2/2_S_R_yt-n_eO-7KedAE_21.mp4	385.06031683296897	2.9928453750908375
99	370.5450862500584	fix_post	2		76	97.0	3.0	/Users/shufanzhang/Documents/PhD/Arrow_of_time/hcp_movie_eyetracking-main/movs/MomentsInTime/groups/group4/final_videos2/2_S_R_yt-n_eO-7KedAE_21.mp4	388.0531622080598	0.7613347499864176
100	371.3064210000448	fix_pre	0		0	98.0	3.0	/Users/shufanzhang/Documents/PhD/Arrow_of_time/hcp_movie_eyetracking-main/movs/MomentsInTime/groups/group4/final_videos2/2_S_R_c5iVM3LI6kI_252.mp4	388.8144969580462	0.0012677089544013143
100	371.3076887089992	movie	1		359	98.0	3.0	/Users/shufanzhang/Documents/PhD/Arrow_of_time/hcp_movie_eyetracking-main/movs/MomentsInTime/groups/group4/final_videos2/2_S_R_c5iVM3LI6kI_252.mp4	388.8157646670006	2.997498583048582
100	374.3051872920478	fix_post	2		86	98.0	3.0	/Users/shufanzhang/Documents/PhD/Arrow_of_time/hcp_movie_eyetracking-main/movs/MomentsInTime/groups/group4/final_videos2/2_S_R_c5iVM3LI6kI_252.mp4	391.8132632500492	0.7445438329596072
101	375.0497311250074	fix_pre	0		0	99.0	3.0	/Users/shufanzhang/Documents/PhD/Arrow_of_time/hcp_movie_eyetracking-main/movs/MomentsInTime/groups/group4/final_videos2/1_S_R_yt-AJypa57HKqM_28.mp4	392.5578070830088	0.0014477090444415808
101	375.0511788340518	movie	1		357	99.0	3.0	/Users/shufanzhang/Documents/PhD/Arrow_of_time/hcp_movie_eyetracking-main/movs/MomentsInTime/groups/group4/final_videos2/1_S_R_yt-AJypa57HKqM_28.mp4	392.55925479205325	2.994536457932554
101	378.0457152919844	fix_post	2		87	99.0	3.0	/Users/shufanzhang/Documents/PhD/Arrow_of_time/hcp_movie_eyetracking-main/movs/MomentsInTime/groups/group4/final_videos2/1_S_R_yt-AJypa57HKqM_28.mp4	395.5537912499858	0.7552112080156803
102	378.80092650000006	fix_pre	0		0	100.0	3.0	/Users/shufanzhang/Documents/PhD/Arrow_of_time/hcp_movie_eyetracking-main/movs/MomentsInTime/groups/group4/final_videos2/2_S_R_yt-VabNGLL9gVc_52.mp4	396.3090024580015	0.0017785000381991267
102	378.80270500003826	movie	1		360	100.0	3.0	/Users/shufanzhang/Documents/PhD/Arrow_of_time/hcp_movie_eyetracking-main/movs/MomentsInTime/groups/group4/final_videos2/2_S_R_yt-VabNGLL9gVc_52.mp4	396.3107809580397	3.006640624953434
102	381.8093456249917	fix_post	2		87	100.0	3.0	/Users/shufanzhang/Documents/PhD/Arrow_of_time/hcp_movie_eyetracking-main/movs/MomentsInTime/groups/group4/final_videos2/2_S_R_yt-VabNGLL9gVc_52.mp4	399.3174215829931	0.7512518749572337
103	382.5605974999489	fix_pre	0		0	101.0	3.0	/Users/shufanzhang/Documents/PhD/Arrow_of_time/hcp_movie_eyetracking-main/movs/MomentsInTime/groups/group4/final_videos2/2_S_R_yt-tQ-hgwTcMqU_43.mp4	400.06867345795035	0.0027730840956792235
103	382.5633705840446	movie	1		358	101.0	3.0	/Users/shufanzhang/Documents/PhD/Arrow_of_time/hcp_movie_eyetracking-main/movs/MomentsInTime/groups/group4/final_videos2/2_S_R_yt-tQ-hgwTcMqU_43.mp4	400.07144654204603	2.9959096249658614
103	385.55928020901047	fix_post	2		89	101.0	3.0	/Users/shufanzhang/Documents/PhD/Arrow_of_time/hcp_movie_eyetracking-main/movs/MomentsInTime/groups/group4/final_videos2/2_S_R_yt-tQ-hgwTcMqU_43.mp4	403.0673561670119	0.7500644579995424
104	386.30934466701	fix_pre	0		0	102.0	3.0	/Users/shufanzhang/Documents/PhD/Arrow_of_time/hcp_movie_eyetracking-main/movs/MomentsInTime/groups/group4/final_videos2/2_S_R_yt-NOnR6C2sjpI_97.mp4	403.81742062501144	0.001269291969947517
104	386.31061395897996	movie	1		358	102.0	3.0	/Users/shufanzhang/Documents/PhD/Arrow_of_time/hcp_movie_eyetracking-main/movs/MomentsInTime/groups/group4/final_videos2/2_S_R_yt-NOnR6C2sjpI_97.mp4	403.8186899169814	2.990395041066222
104	389.3010090000462	fix_post	2		89	102.0	3.0	/Users/shufanzhang/Documents/PhD/Arrow_of_time/hcp_movie_eyetracking-main/movs/MomentsInTime/groups/group4/final_videos2/2_S_R_yt-NOnR6C2sjpI_97.mp4	406.8090849580476	0.754170166910626
105	390.0551791669568	fix_pre	0		0	103.0	3.0	/Users/shufanzhang/Documents/PhD/Arrow_of_time/hcp_movie_eyetracking-main/movs/MomentsInTime/groups/group4/final_videos2/1_S_R_yt-HwEfWfFJhRo_126.mp4	407.56325512495823	0.001482499996200204
105	390.056661666953	movie	1		357	103.0	3.0	/Users/shufanzhang/Documents/PhD/Arrow_of_time/hcp_movie_eyetracking-main/movs/MomentsInTime/groups/group4/final_videos2/1_S_R_yt-HwEfWfFJhRo_126.mp4	407.56473762495443	2.994329458102584
105	393.0509911250556	fix_post	2		89	103.0	3.0	/Users/shufanzhang/Documents/PhD/Arrow_of_time/hcp_movie_eyetracking-main/movs/MomentsInTime/groups/group4/final_videos2/1_S_R_yt-HwEfWfFJhRo_126.mp4	410.559067083057	0.7542004169663414
106	393.80519154202193	fix_pre	0		0	104.0	3.0	/Users/shufanzhang/Documents/PhD/Arrow_of_time/hcp_movie_eyetracking-main/movs/MomentsInTime/groups/group4/final_videos2/2_S_yt-9Ow95khYa_M_91.mp4	411.31326750002336	0.0014598750276491046
106	393.8066514170496	movie	1		356	104.0	3.0	/Users/shufanzhang/Documents/PhD/Arrow_of_time/hcp_movie_eyetracking-main/movs/MomentsInTime/groups/group4/final_videos2/2_S_yt-9Ow95khYa_M_91.mp4	411.314727375051	2.9887832920067012
106	396.7954347090563	fix_post	2		87	104.0	3.0	/Users/shufanzhang/Documents/PhD/Arrow_of_time/hcp_movie_eyetracking-main/movs/MomentsInTime/groups/group4/final_videos2/2_S_yt-9Ow95khYa_M_91.mp4	414.3035106670577	0.7639243749435991
107	397.5593590839999	fix_pre	0		0	105.0	3.0	/Users/shufanzhang/Documents/PhD/Arrow_of_time/hcp_movie_eyetracking-main/movs/MomentsInTime/groups/group4/final_videos2/2_S_yt--DXkjCUzThU_413.mp4	415.0674350420013	0.0015295830089598894
107	397.56088866700884	movie	1		358	105.0	3.0	/Users/shufanzhang/Documents/PhD/Arrow_of_time/hcp_movie_eyetracking-main/movs/MomentsInTime/groups/group4/final_videos2/2_S_yt--DXkjCUzThU_413.mp4	415.06896462501027	2.9843569999793544
107	400.5452456669882	fix_post	2		87	105.0	3.0	/Users/shufanzhang/Documents/PhD/Arrow_of_time/hcp_movie_eyetracking-main/movs/MomentsInTime/groups/group4/final_videos2/2_S_yt--DXkjCUzThU_413.mp4	418.0533216249896	0.7646487080492079
108	401.3098943750374	fix_pre	0		0	106.0	3.0	/Users/shufanzhang/Documents/PhD/Arrow_of_time/hcp_movie_eyetracking-main/movs/MomentsInTime/groups/group4/final_videos2/2_S_yt-CRw9-cCQqbg_332.mp4	418.81797033303883	0.0015485839685425162
108	401.31144295900594	movie	1		359	106.0	3.0	/Users/shufanzhang/Documents/PhD/Arrow_of_time/hcp_movie_eyetracking-main/movs/MomentsInTime/groups/group4/final_videos2/2_S_yt-CRw9-cCQqbg_332.mp4	418.8195189170074	2.997870375053026
108	404.30931333405897	fix_post	2		83	106.0	3.0	/Users/shufanzhang/Documents/PhD/Arrow_of_time/hcp_movie_eyetracking-main/movs/MomentsInTime/groups/group4/final_videos2/2_S_yt-CRw9-cCQqbg_332.mp4	421.8173892920604	0.7484023328870535
109	405.057715666946	fix_pre	0		0	107.0	3.0	/Users/shufanzhang/Documents/PhD/Arrow_of_time/hcp_movie_eyetracking-main/movs/MomentsInTime/groups/group4/final_videos2/2_S_yt-rafmq6Ydoc8_15.mp4	422.56579162494745	0.0013355830451473594
109	405.05905124999117	movie	1		360	107.0	3.0	/Users/shufanzhang/Documents/PhD/Arrow_of_time/hcp_movie_eyetracking-main/movs/MomentsInTime/groups/group4/final_videos2/2_S_yt-rafmq6Ydoc8_15.mp4	422.5671272079926	3.0004727919586003
109	408.05952404194977	fix_post	2		87	107.0	3.0	/Users/shufanzhang/Documents/PhD/Arrow_of_time/hcp_movie_eyetracking-main/movs/MomentsInTime/groups/group4/final_videos2/2_S_yt-rafmq6Ydoc8_15.mp4	425.5675999999512	0.7393884580815211
110	408.7989125000313	fix_pre	0		0	108.0	3.0	/Users/shufanzhang/Documents/PhD/Arrow_of_time/hcp_movie_eyetracking-main/movs/MomentsInTime/groups/group4/final_videos2/2_S_R_yt-P99dLq0DrK0_277.mp4	426.3069884580327	0.0014515420189127326
110	408.8003640420502	movie	1		361	108.0	3.0	/Users/shufanzhang/Documents/PhD/Arrow_of_time/hcp_movie_eyetracking-main/movs/MomentsInTime/groups/group4/final_videos2/2_S_R_yt-P99dLq0DrK0_277.mp4	426.30844000005163	3.0047730419319123
110	411.8051370839821	fix_post	2		76	108.0	3.0	/Users/shufanzhang/Documents/PhD/Arrow_of_time/hcp_movie_eyetracking-main/movs/MomentsInTime/groups/group4/final_videos2/2_S_R_yt-P99dLq0DrK0_277.mp4	429.31321304198354	0.7529835830209777
111	412.5581206670031	fix_pre	0		0	109.0	3.0	/Users/shufanzhang/Documents/PhD/Arrow_of_time/hcp_movie_eyetracking-main/movs/MomentsInTime/groups/group4/final_videos2/2_S_R_yt-kxWtOXNIsRA_329.mp4	430.0661966250045	0.0014653330435976386
111	412.5595860000467	movie	1		358	109.0	3.0	/Users/shufanzhang/Documents/PhD/Arrow_of_time/hcp_movie_eyetracking-main/movs/MomentsInTime/groups/group4/final_videos2/2_S_R_yt-kxWtOXNIsRA_329.mp4	430.0676619580481	2.990395666914992
111	415.5499816669617	fix_post	2		89	109.0	3.0	/Users/shufanzhang/Documents/PhD/Arrow_of_time/hcp_movie_eyetracking-main/movs/MomentsInTime/groups/group4/final_videos2/2_S_R_yt-kxWtOXNIsRA_329.mp4	433.0580576249631	0.7555741670075804
112	416.30555583396927	fix_pre	0		0	110.0	3.0	/Users/shufanzhang/Documents/PhD/Arrow_of_time/hcp_movie_eyetracking-main/movs/MomentsInTime/groups/group4/final_videos2/1_S_R_yt-VjTiMtjdjTw_103.mp4	433.8136317919707	0.0012812080094590783
112	416.3068370419787	movie	1		357	110.0	3.0	/Users/shufanzhang/Documents/PhD/Arrow_of_time/hcp_movie_eyetracking-main/movs/MomentsInTime/groups/group4/final_videos2/1_S_R_yt-VjTiMtjdjTw_103.mp4	433.81491299998015	2.9986746250651777
112	419.3055116670439	fix_post	2		88	110.0	3.0	/Users/shufanzhang/Documents/PhD/Arrow_of_time/hcp_movie_eyetracking-main/movs/MomentsInTime/groups/group4/final_videos2/1_S_R_yt-VjTiMtjdjTw_103.mp4	436.81358762504533	0.7497577919857576
113	420.05526945902966	fix_pre	0		0	111.0	3.0	/Users/shufanzhang/Documents/PhD/Arrow_of_time/hcp_movie_eyetracking-main/movs/MomentsInTime/groups/group4/final_videos2/2_S_R_yt-0RBWX9VRzaU_141.mp4	437.5633454170311	0.0018147079972550273
113	420.0570841670269	movie	1		359	111.0	3.0	/Users/shufanzhang/Documents/PhD/Arrow_of_time/hcp_movie_eyetracking-main/movs/MomentsInTime/groups/group4/final_videos2/2_S_R_yt-0RBWX9VRzaU_141.mp4	437.56516012502834	2.992422082927078
113	423.049506249954	fix_post	2		90	111.0	3.0	/Users/shufanzhang/Documents/PhD/Arrow_of_time/hcp_movie_eyetracking-main/movs/MomentsInTime/groups/group4/final_videos2/2_S_R_yt-0RBWX9VRzaU_141.mp4	440.5575822079554	0.7554724999936298
114	423.8049787499476	fix_pre	0		0	112.0	3.0	/Users/shufanzhang/Documents/PhD/Arrow_of_time/hcp_movie_eyetracking-main/movs/MomentsInTime/groups/group4/final_videos2/2_S_yt-0RBWX9VRzaU_141.mp4	441.31305470794905	0.0008294590516015887
114	423.8058082089992	movie	1		359	112.0	3.0	/Users/shufanzhang/Documents/PhD/Arrow_of_time/hcp_movie_eyetracking-main/movs/MomentsInTime/groups/group4/final_videos2/2_S_yt-0RBWX9VRzaU_141.mp4	441.31388416700065	2.9994319160468876
114	426.8052401250461	fix_post	2		88	112.0	3.0	/Users/shufanzhang/Documents/PhD/Arrow_of_time/hcp_movie_eyetracking-main/movs/MomentsInTime/groups/group4/final_videos2/2_S_yt-0RBWX9VRzaU_141.mp4	444.31331608304754	0.7692057089880109
115	427.5744458340341	fix_pre	0		0	113.0	3.0	/Users/shufanzhang/Documents/PhD/Arrow_of_time/hcp_movie_eyetracking-main/movs/MomentsInTime/groups/group4/final_videos2/1_S_R_yt-zPfYVjnzYEY_32.mp4	445.08252179203555	0.0031383329769596457
115	427.5775841670111	movie	1		356	113.0	3.0	/Users/shufanzhang/Documents/PhD/Arrow_of_time/hcp_movie_eyetracking-main/movs/MomentsInTime/groups/group4/final_videos2/1_S_R_yt-zPfYVjnzYEY_32.mp4	445.0856601250125	2.9720220420276746
115	430.54960620903876	fix_post	2		89	113.0	3.0	/Users/shufanzhang/Documents/PhD/Arrow_of_time/hcp_movie_eyetracking-main/movs/MomentsInTime/groups/group4/final_videos2/1_S_R_yt-zPfYVjnzYEY_32.mp4	448.0576821670402	0.7557260829489678
117	431.3053322919877	stim	0		120				448.81340824998915	0.9950860419776291
