trial_nr	onset	event_type	phase	response	nr_frames	movie_index	movie_duration	movie_file	blank	onset_abs	duration
0	0.13933491706848145	stim	0		499					64.61842489242554	4.158952951431274
0	4.281642913818359	response	0	space						68.76073288917542	
1	4.298287868499756	fix_pre	0		121	0.0	2.5	/experiments/knapen_aot/videos/S_yt-loe3Rqs8TEM_46.mp4	0.0	68.77737784385681	1.493023157119751
1	5.791311025619507	movie	1		242	0.0	2.5	/experiments/knapen_aot/videos/S_yt-loe3Rqs8TEM_46.mp4	0.0	70.27040100097656	2.0142388343811035
1	7.80554986000061	fix_post	2		12	0.0	2.5	/experiments/knapen_aot/videos/S_yt-loe3Rqs8TEM_46.mp4	0.0	72.28463983535767	0.09990310668945312
2	7.9054529666900635	fix_pre	0		120	1.0	2.5	/experiments/knapen_aot/videos/S_yt-Z_irN6cNiD4_148.mp4	0.0	72.38454294204712	1.0000379085540771
2	8.90549087524414	movie	1		295	1.0	2.5	/experiments/knapen_aot/videos/S_yt-Z_irN6cNiD4_148.mp4	0.0	73.3845808506012	2.4999470710754395
2	11.40543794631958	fix_post	2		12	1.0	2.5	/experiments/knapen_aot/videos/S_yt-Z_irN6cNiD4_148.mp4	0.0	75.88452792167664	0.10006904602050781
3	11.505506992340088	fix_pre	0		120	2.0	2.5	/experiments/knapen_aot/videos/S_yt-t9sowxGR_s4_1.mp4	0.0	75.98459696769714	0.9999649524688721
3	12.50547194480896	movie	1		289	2.0	2.5	/experiments/knapen_aot/videos/S_yt-t9sowxGR_s4_1.mp4	0.0	76.98456192016602	2.500006914138794
3	15.005478858947754	fix_post	2		12	2.0	2.5	/experiments/knapen_aot/videos/S_yt-t9sowxGR_s4_1.mp4	0.0	79.48456883430481	0.09997701644897461
4	15.105455875396729	fix_pre	0		120	3.0	2.5	/experiments/knapen_aot/videos/S_yt-6_SgWsPne7M_11.mp4	0.0	79.58454585075378	0.9999871253967285
4	16.105443000793457	movie	1		296	3.0	2.5	/experiments/knapen_aot/videos/S_yt-6_SgWsPne7M_11.mp4	0.0	80.58453297615051	2.5000498294830322
4	18.60549283027649	fix_post	2		12	3.0	2.5	/experiments/knapen_aot/videos/S_yt-6_SgWsPne7M_11.mp4	0.0	83.08458280563354	0.09997415542602539
5	18.705466985702515	fix_pre	0		120	4.0	2.5	/experiments/knapen_aot/videos/S_yt-n12iRXTksXA_65.mp4	0.0	83.18455696105957	0.9999759197235107
5	19.705442905426025	movie	1		240	4.0	2.5	/experiments/knapen_aot/videos/S_yt-n12iRXTksXA_65.mp4	0.0	84.18453288078308	2.500113010406494
5	22.20555591583252	fix_post	2		12	4.0	2.5	/experiments/knapen_aot/videos/S_yt-n12iRXTksXA_65.mp4	0.0	86.68464589118958	0.09985995292663574
6	22.305415868759155	fix_pre	0		120	5.0	2.5	blank	1.0	86.78450584411621	1.000040054321289
6	23.305455923080444	movie	1		300	5.0	2.5	blank	1.0	87.7845458984375	2.4999210834503174
6	25.80537700653076	fix_post	2		12	5.0	2.5	blank	1.0	90.28446698188782	0.10019087791442871
7	25.90556788444519	fix_pre	0		120	6.0	2.5	/experiments/knapen_aot/videos/S_yt-S6N5FyjSFZE_4.mp4	0.0	90.38465785980225	1.000014066696167
7	26.905581951141357	movie	1		242	6.0	2.5	/experiments/knapen_aot/videos/S_yt-S6N5FyjSFZE_4.mp4	0.0	91.38467192649841	2.4998600482940674
7	29.405441999435425	fix_post	2		12	6.0	2.5	/experiments/knapen_aot/videos/S_yt-S6N5FyjSFZE_4.mp4	0.0	93.88453197479248	0.10009002685546875
8	29.505532026290894	fix_pre	0		120	7.0	2.5	/experiments/knapen_aot/videos/S_yt-sZBe-xmTySc_8.mp4	0.0	93.98462200164795	0.9998838901519775
8	30.50541591644287	movie	1		300	7.0	2.5	/experiments/knapen_aot/videos/S_yt-sZBe-xmTySc_8.mp4	0.0	94.98450589179993	2.5000228881835938
8	33.005438804626465	fix_post	2		12	7.0	2.5	/experiments/knapen_aot/videos/S_yt-sZBe-xmTySc_8.mp4	0.0	97.48452877998352	0.1000051498413086
9	33.10544395446777	fix_pre	0		120	8.0	2.5	/experiments/knapen_aot/videos/S_yt-qHUewJuLW4o_19.mp4	0.0	97.58453392982483	0.9999580383300781
9	34.10540199279785	movie	1		130	8.0	2.5	/experiments/knapen_aot/videos/S_yt-qHUewJuLW4o_19.mp4	0.0	98.58449196815491	2.524854898452759
9	36.63025689125061	fix_post	2		9	8.0	2.5	/experiments/knapen_aot/videos/S_yt-qHUewJuLW4o_19.mp4	0.0	101.10934686660767	0.07509493827819824
10	36.70535182952881	fix_pre	0		120	9.0	2.5	/experiments/knapen_aot/videos/S_yt-YZO4_2yJLWE_1447.mp4	0.0	101.18444180488586	1.4752650260925293
10	38.18061685562134	movie	1		74	9.0	2.5	/experiments/knapen_aot/videos/S_yt-YZO4_2yJLWE_1447.mp4	0.0	102.6597068309784	2.025191068649292
10	40.20580792427063	fix_post	2		12	9.0	2.5	/experiments/knapen_aot/videos/S_yt-YZO4_2yJLWE_1447.mp4	0.0	104.68489789962769	0.0997920036315918
11	40.30559992790222	fix_pre	0		120	10.0	2.5	blank	1.0	104.78468990325928	1.0000779628753662
11	41.30567789077759	movie	1		300	10.0	2.5	blank	1.0	105.78476786613464	2.4997191429138184
11	43.805397033691406	fix_post	2		12	10.0	2.5	blank	1.0	108.28448700904846	0.09995889663696289
12	43.90535593032837	fix_pre	0		120	11.0	2.5	/experiments/knapen_aot/videos/S_yt-GpVFUM8K0yE_68.mp4	0.0	108.38444590568542	0.999985933303833
12	44.9053418636322	movie	1		294	11.0	2.5	/experiments/knapen_aot/videos/S_yt-GpVFUM8K0yE_68.mp4	0.0	109.38443183898926	2.500082015991211
12	47.40542387962341	fix_post	2		12	11.0	2.5	/experiments/knapen_aot/videos/S_yt-GpVFUM8K0yE_68.mp4	0.0	111.88451385498047	0.09996199607849121
13	47.505385875701904	fix_pre	0		120	12.0	2.5	/experiments/knapen_aot/videos/S_yt-Hs5HF3mTQ7A_9.mp4	0.0	111.98447585105896	0.9999661445617676
13	48.50535202026367	movie	1		297	12.0	2.5	/experiments/knapen_aot/videos/S_yt-Hs5HF3mTQ7A_9.mp4	0.0	112.98444199562073	2.4999868869781494
13	51.00533890724182	fix_post	2		12	12.0	2.5	/experiments/knapen_aot/videos/S_yt-Hs5HF3mTQ7A_9.mp4	0.0	115.48442888259888	0.09996700286865234
14	51.105305910110474	fix_pre	0		120	13.0	2.5	/experiments/knapen_aot/videos/S_yt-ZmoUDsP2y40_8.mp4	0.0	115.58439588546753	1.0000500679016113
14	52.105355978012085	movie	1		298	13.0	2.5	/experiments/knapen_aot/videos/S_yt-ZmoUDsP2y40_8.mp4	0.0	116.58444595336914	2.499912977218628
14	54.60526895523071	fix_post	2		12	13.0	2.5	/experiments/knapen_aot/videos/S_yt-ZmoUDsP2y40_8.mp4	0.0	119.08435893058777	0.10008001327514648
15	54.70534896850586	fix_pre	0		120	14.0	2.5	blank	1.0	119.18443894386292	0.9999098777770996
15	55.70525884628296	movie	1		300	14.0	2.5	blank	1.0	120.18434882164001	2.500117063522339
15	58.2053759098053	fix_post	2		12	14.0	2.5	blank	1.0	122.68446588516235	0.1000211238861084
16	58.305397033691406	fix_pre	0		120	15.0	2.5	blank	1.0	122.78448700904846	0.9999308586120605
16	59.30532789230347	movie	1		300	15.0	2.5	blank	1.0	123.78441786766052	2.499908924102783
16	61.80523681640625	fix_post	2		12	15.0	2.5	blank	1.0	126.2843267917633	0.10005712509155273
17	61.9052939414978	fix_pre	0		120	16.0	2.5	/experiments/knapen_aot/videos/S_yt-H2y1th4WaWU_51.mp4	0.0	126.38438391685486	0.99993896484375
17	62.90523290634155	movie	1		291	16.0	2.5	/experiments/knapen_aot/videos/S_yt-H2y1th4WaWU_51.mp4	0.0	127.38432288169861	2.500072956085205
17	65.40530586242676	fix_post	2		12	16.0	2.5	/experiments/knapen_aot/videos/S_yt-H2y1th4WaWU_51.mp4	0.0	129.8843958377838	0.09999299049377441
18	65.50529885292053	fix_pre	0		120	17.0	2.5	/experiments/knapen_aot/videos/S_production_ID_4820331.mp4	0.0	129.9843888282776	1.0003111362457275
18	66.50560998916626	movie	1		161	17.0	2.5	/experiments/knapen_aot/videos/S_production_ID_4820331.mp4	0.0	130.98469996452332	2.499677896499634
18	69.0052878856659	fix_post	2		12	17.0	2.5	/experiments/knapen_aot/videos/S_production_ID_4820331.mp4	0.0	133.48437786102295	0.0999751091003418
19	69.10526299476624	fix_pre	0		120	18.0	2.5	blank	1.0	133.5843529701233	0.9999449253082275
19	70.10520792007446	movie	1		300	18.0	2.5	blank	1.0	134.58429789543152	2.500359058380127
19	72.60556697845459	fix_post	2		12	18.0	2.5	blank	1.0	137.08465695381165	0.09966683387756348
20	72.70523381233215	fix_pre	0		120	19.0	2.5	/experiments/knapen_aot/videos/S_yt-fAWPQRcrXl0_38.mp4	0.0	137.1843237876892	1.0002350807189941
20	73.70546889305115	movie	1		300	19.0	2.5	/experiments/knapen_aot/videos/S_yt-fAWPQRcrXl0_38.mp4	0.0	138.1845588684082	2.4997880458831787
20	76.20525693893433	fix_post	2		12	19.0	2.5	/experiments/knapen_aot/videos/S_yt-fAWPQRcrXl0_38.mp4	0.0	140.68434691429138	0.10009193420410156
21	76.30534887313843	fix_pre	0		120	20.0	2.5	blank	1.0	140.78443884849548	0.9999499320983887
21	77.30529880523682	movie	1		300	20.0	2.5	blank	1.0	141.78438878059387	2.499904155731201
21	79.80520296096802	fix_post	2		12	20.0	2.5	blank	1.0	144.28429293632507	0.1000220775604248
22	79.90522503852844	fix_pre	0		120	21.0	2.5	/experiments/knapen_aot/videos/S_yt-A-RhzHTz38g_21.mp4	0.0	144.3843150138855	1.0001039505004883
22	80.90532898902893	movie	1		295	21.0	2.5	/experiments/knapen_aot/videos/S_yt-A-RhzHTz38g_21.mp4	0.0	145.384418964386	2.4998838901519775
22	83.40521287918091	fix_post	2		12	21.0	2.5	/experiments/knapen_aot/videos/S_yt-A-RhzHTz38g_21.mp4	0.0	147.88430285453796	0.09995913505554199
23	83.50517201423645	fix_pre	0		120	22.0	2.5	blank	1.0	147.9842619895935	1.0000178813934326
23	84.50518989562988	movie	1		300	22.0	2.5	blank	1.0	148.98427987098694	2.4999990463256836
23	87.00518894195557	fix_post	2		12	22.0	2.5	blank	1.0	151.48427891731262	0.1000680923461914
24	87.10525703430176	fix_pre	0		120	23.0	2.5	/experiments/knapen_aot/videos/S_yt-oypn4VCTu6U_279.mp4	0.0	151.5843470096588	1.0000507831573486
24	88.1053078174591	movie	1		181	23.0	2.5	/experiments/knapen_aot/videos/S_yt-oypn4VCTu6U_279.mp4	0.0	152.58439779281616	2.5002901554107666
24	90.60559797286987	fix_post	2		12	23.0	2.5	/experiments/knapen_aot/videos/S_yt-oypn4VCTu6U_279.mp4	0.0	155.08468794822693	0.09992098808288574
25	90.70551896095276	fix_pre	0		120	24.0	2.5	/experiments/knapen_aot/videos/S_ILSVRC2015_train_00661004.mp4	0.0	155.18460893630981	0.9996659755706787
25	91.70518493652344	movie	1		288	24.0	2.5	/experiments/knapen_aot/videos/S_ILSVRC2015_train_00661004.mp4	0.0	156.1842749118805	2.5002598762512207
25	94.20544481277466	fix_post	2		12	24.0	2.5	/experiments/knapen_aot/videos/S_ILSVRC2015_train_00661004.mp4	0.0	158.6845347881317	0.09975314140319824
26	94.30519795417786	fix_pre	0		120	25.0	2.5	/experiments/knapen_aot/videos/S_yt-xUPucH7kNAs_178.mp4	0.0	158.7842879295349	0.9999349117279053
26	95.30513286590576	movie	1		296	25.0	2.5	/experiments/knapen_aot/videos/S_yt-xUPucH7kNAs_178.mp4	0.0	159.78422284126282	2.5000319480895996
26	97.80516481399536	fix_post	2		12	25.0	2.5	/experiments/knapen_aot/videos/S_yt-xUPucH7kNAs_178.mp4	0.0	162.28425478935242	0.09999608993530273
27	97.90516090393066	fix_pre	0		120	26.0	2.5	blank	1.0	162.38425087928772	0.9999990463256836
27	98.90515995025635	movie	1		300	26.0	2.5	blank	1.0	163.3842499256134	2.4999380111694336
27	101.40509796142578	fix_post	2		12	26.0	2.5	blank	1.0	165.88418793678284	0.1000368595123291
28	101.50513482093811	fix_pre	0		120	27.0	2.5	/experiments/knapen_aot/videos/S_yt-e5ua5Pj86E4_140.mp4	0.0	165.98422479629517	0.9999890327453613
28	102.50512385368347	movie	1		297	27.0	2.5	/experiments/knapen_aot/videos/S_yt-e5ua5Pj86E4_140.mp4	0.0	166.98421382904053	2.5001180171966553
28	105.00524187088013	fix_post	2		12	27.0	2.5	/experiments/knapen_aot/videos/S_yt-e5ua5Pj86E4_140.mp4	0.0	169.48433184623718	0.09990811347961426
29	105.10514998435974	fix_pre	0		120	28.0	2.5	/experiments/knapen_aot/videos/S_ILSVRC2015_train_00415002.mp4	0.0	169.5842399597168	0.9999949932098389
29	106.10514497756958	movie	1		292	28.0	2.5	/experiments/knapen_aot/videos/S_ILSVRC2015_train_00415002.mp4	0.0	170.58423495292664	2.4999659061431885
29	108.60511088371277	fix_post	2		12	28.0	2.5	/experiments/knapen_aot/videos/S_ILSVRC2015_train_00415002.mp4	0.0	173.08420085906982	0.09999513626098633
30	108.70510601997375	fix_pre	0		120	29.0	2.5	/experiments/knapen_aot/videos/S_yt-a_awONsLFfE_107.mp4	0.0	173.1841959953308	0.9999778270721436
30	109.7050838470459	movie	1		298	29.0	2.5	/experiments/knapen_aot/videos/S_yt-a_awONsLFfE_107.mp4	0.0	174.18417382240295	2.499965190887451
30	112.20504903793335	fix_post	2		12	29.0	2.5	/experiments/knapen_aot/videos/S_yt-a_awONsLFfE_107.mp4	0.0	176.6841390132904	0.10010290145874023
31	112.30515193939209	fix_pre	0		120	30.0	2.5	/experiments/knapen_aot/videos/S_yt-65cexqxy5lU_35.mp4	0.0	176.78424191474915	0.9999120235443115
31	113.3050639629364	movie	1		296	30.0	2.5	/experiments/knapen_aot/videos/S_yt-65cexqxy5lU_35.mp4	0.0	177.78415393829346	2.5000178813934326
31	115.80508184432983	fix_post	2		12	30.0	2.5	/experiments/knapen_aot/videos/S_yt-65cexqxy5lU_35.mp4	0.0	180.2841718196869	0.09995913505554199
32	115.90504097938538	fix_pre	0		120	31.0	2.5	/experiments/knapen_aot/videos/S_yt-JxqSboqaUPY_5.mp4	0.0	180.38413095474243	1.0000369548797607
32	116.90507793426514	movie	1		170	31.0	2.5	/experiments/knapen_aot/videos/S_yt-JxqSboqaUPY_5.mp4	0.0	181.3841679096222	2.8924670219421387
32	119.79754495620728	fix_post	2		0	31.0	2.5	/experiments/knapen_aot/videos/S_yt-JxqSboqaUPY_5.mp4	0.0	184.27663493156433	0.0021970272064208984
33	119.7997419834137	fix_pre	0		85	32.0	2.5	/experiments/knapen_aot/videos/S_yt-Y32yFYRmNVU_22.mp4	0.0	184.27883195877075	0.7057750225067139
33	120.50551700592041	movie	1		283	32.0	2.5	/experiments/knapen_aot/videos/S_yt-Y32yFYRmNVU_22.mp4	0.0	184.98460698127747	2.9328689575195312
33	123.43838596343994	fix_post	2		0	32.0	2.5	/experiments/knapen_aot/videos/S_yt-Y32yFYRmNVU_22.mp4	0.0	187.917475938797	0.002198934555053711
34	123.440584897995	fix_pre	0		80	33.0	2.5	/experiments/knapen_aot/videos/S_yt-AJypa57HKqM_28.mp4	0.0	187.91967487335205	1.1730809211730957
34	124.61366581916809	movie	1		165	33.0	2.5	/experiments/knapen_aot/videos/S_yt-AJypa57HKqM_28.mp4	0.0	189.09275579452515	2.3364410400390625
34	126.95010685920715	fix_post	2		0	33.0	2.5	/experiments/knapen_aot/videos/S_yt-AJypa57HKqM_28.mp4	0.0	191.4291968345642	0.0027360916137695312
35	126.95284295082092	fix_pre	0		90	34.0	2.5	/experiments/knapen_aot/videos/S_yt-YWfInCviN1s_126.mp4	0.0	191.43193292617798	0.7524938583374023
35	127.70533680915833	movie	1		229	34.0	2.5	/experiments/knapen_aot/videos/S_yt-YWfInCviN1s_126.mp4	0.0	192.18442678451538	2.499638080596924
35	130.20497488975525	fix_post	2		12	34.0	2.5	/experiments/knapen_aot/videos/S_yt-YWfInCviN1s_126.mp4	0.0	194.6840648651123	0.10008001327514648
36	130.3050549030304	fix_pre	0		120	35.0	2.5	/experiments/knapen_aot/videos/S_yt-Uih643A1YtA_110.mp4	0.0	194.78414487838745	0.9999659061431885
36	131.30502080917358	movie	1		291	35.0	2.5	/experiments/knapen_aot/videos/S_yt-Uih643A1YtA_110.mp4	0.0	195.78411078453064	2.975102186203003
36	134.2801229953766	fix_post	2		0	35.0	2.5	/experiments/knapen_aot/videos/S_yt-Uih643A1YtA_110.mp4	0.0	198.75921297073364	0.0022978782653808594
37	134.28242087364197	fix_pre	0		75	36.0	2.5	/experiments/knapen_aot/videos/S_ILSVRC2015_train_00552000.mp4	0.0	198.76151084899902	0.6226201057434082
37	134.90504097938538	movie	1		297	36.0	2.5	/experiments/knapen_aot/videos/S_ILSVRC2015_train_00552000.mp4	0.0	199.38413095474243	2.499976873397827
37	137.4050178527832	fix_post	2		12	36.0	2.5	/experiments/knapen_aot/videos/S_ILSVRC2015_train_00552000.mp4	0.0	201.88410782814026	0.10031008720397949
38	137.50532793998718	fix_pre	0		120	37.0	2.5	/experiments/knapen_aot/videos/S_yt-9PTQ4U4oPUU_243.mp4	0.0	201.98441791534424	1.5279600620269775
38	139.03328800201416	movie	1		178	37.0	2.5	/experiments/knapen_aot/videos/S_yt-9PTQ4U4oPUU_243.mp4	0.0	203.51237797737122	1.9723730087280273
38	141.0056610107422	fix_post	2		12	37.0	2.5	/experiments/knapen_aot/videos/S_yt-9PTQ4U4oPUU_243.mp4	0.0	205.48475098609924	0.09974288940429688
39	141.10540390014648	fix_pre	0		120	38.0	2.5	/experiments/knapen_aot/videos/S_yt-VypeVQ7gJ_k_578.mp4	0.0	205.58449387550354	0.9995450973510742
39	142.10494899749756	movie	1		295	38.0	2.5	/experiments/knapen_aot/videos/S_yt-VypeVQ7gJ_k_578.mp4	0.0	206.58403897285461	2.5001440048217773
39	144.60509300231934	fix_post	2		12	38.0	2.5	/experiments/knapen_aot/videos/S_yt-VypeVQ7gJ_k_578.mp4	0.0	209.0841829776764	0.09997200965881348
40	144.70506501197815	fix_pre	0		120	39.0	2.5	/experiments/knapen_aot/videos/S_yt-DpLc4e4bpu0_1467.mp4	0.0	209.1841549873352	1.4834208488464355
40	146.18848586082458	movie	1		184	39.0	2.5	/experiments/knapen_aot/videos/S_yt-DpLc4e4bpu0_1467.mp4	0.0	210.66757583618164	2.016566038131714
40	148.2050518989563	fix_post	2		12	39.0	2.5	/experiments/knapen_aot/videos/S_yt-DpLc4e4bpu0_1467.mp4	0.0	212.68414187431335	0.0999300479888916
41	148.3049819469452	fix_pre	0		120	40.0	2.5	/experiments/knapen_aot/videos/S_yt-sBdvBO-TPNM_8.mp4	0.0	212.78407192230225	0.9999589920043945
41	149.30494093894958	movie	1		291	40.0	2.5	/experiments/knapen_aot/videos/S_yt-sBdvBO-TPNM_8.mp4	0.0	213.78403091430664	2.5000059604644775
41	151.80494689941406	fix_post	2		12	40.0	2.5	/experiments/knapen_aot/videos/S_yt-sBdvBO-TPNM_8.mp4	0.0	216.28403687477112	0.09999394416809082
42	151.90494084358215	fix_pre	0		120	41.0	2.5	blank	1.0	216.3840308189392	1.000025987625122
42	152.90496683120728	movie	1		300	41.0	2.5	blank	1.0	217.38405680656433	2.4998881816864014
42	155.40485501289368	fix_post	2		12	41.0	2.5	blank	1.0	219.88394498825073	0.10039901733398438
43	155.50525403022766	fix_pre	0		120	42.0	2.5	/experiments/knapen_aot/videos/S_yt-4slVHFGPwEs_744.mp4	0.0	219.98434400558472	1.4998397827148438
43	157.0050938129425	movie	1		120	42.0	2.5	/experiments/knapen_aot/videos/S_yt-4slVHFGPwEs_744.mp4	0.0	221.48418378829956	2.000582218170166
43	159.00567603111267	fix_post	2		12	42.0	2.5	/experiments/knapen_aot/videos/S_yt-4slVHFGPwEs_744.mp4	0.0	223.48476600646973	0.09951186180114746
44	159.10518789291382	fix_pre	0		120	43.0	2.5	/experiments/knapen_aot/videos/S_yt-mOQJwaPQbMg_5.mp4	0.0	223.58427786827087	0.9996609687805176
44	160.10484886169434	movie	1		294	43.0	2.5	/experiments/knapen_aot/videos/S_yt-mOQJwaPQbMg_5.mp4	0.0	224.5839388370514	2.500101089477539
44	162.60494995117188	fix_post	2		12	43.0	2.5	/experiments/knapen_aot/videos/S_yt-mOQJwaPQbMg_5.mp4	0.0	227.08403992652893	0.09994101524353027
45	162.7048909664154	fix_pre	0		120	44.0	2.5	/experiments/knapen_aot/videos/S_yt-q8mfIumbHuo_84.mp4	0.0	227.18398094177246	0.9999969005584717
45	163.70488786697388	movie	1		237	44.0	2.5	/experiments/knapen_aot/videos/S_yt-q8mfIumbHuo_84.mp4	0.0	228.18397784233093	2.500089168548584
45	166.20497703552246	fix_post	2		12	44.0	2.5	/experiments/knapen_aot/videos/S_yt-q8mfIumbHuo_84.mp4	0.0	230.68406701087952	0.09999990463256836
46	166.30497694015503	fix_pre	0		120	45.0	2.5	/experiments/knapen_aot/videos/S_yt-jovPh9BdlYI_215.mp4	0.0	230.78406691551208	0.9999709129333496
46	167.30494785308838	movie	1		294	45.0	2.5	/experiments/knapen_aot/videos/S_yt-jovPh9BdlYI_215.mp4	0.0	231.78403782844543	2.4999501705169678
46	169.80489802360535	fix_post	2		12	45.0	2.5	/experiments/knapen_aot/videos/S_yt-jovPh9BdlYI_215.mp4	0.0	234.2839879989624	0.09996700286865234
47	169.904865026474	fix_pre	0		120	46.0	2.5	/experiments/knapen_aot/videos/S_yt-jsG6vM9Lkoc_318.mp4	0.0	234.38395500183105	1.4835147857666016
47	171.3883798122406	movie	1		186	46.0	2.5	/experiments/knapen_aot/videos/S_yt-jsG6vM9Lkoc_318.mp4	0.0	235.86746978759766	2.0165631771087646
47	173.40494298934937	fix_post	2		12	46.0	2.5	/experiments/knapen_aot/videos/S_yt-jsG6vM9Lkoc_318.mp4	0.0	237.88403296470642	0.10006093978881836
48	173.50500392913818	fix_pre	0		120	47.0	2.5	/experiments/knapen_aot/videos/S_ILSVRC2015_train_00536000.mp4	0.0	237.98409390449524	1.4917049407958984
48	174.99670886993408	movie	1		184	47.0	2.5	/experiments/knapen_aot/videos/S_ILSVRC2015_train_00536000.mp4	0.0	239.47579884529114	2.0087170600891113
48	177.0054259300232	fix_post	2		12	47.0	2.5	/experiments/knapen_aot/videos/S_ILSVRC2015_train_00536000.mp4	0.0	241.48451590538025	0.09978604316711426
49	177.1052119731903	fix_pre	0		120	48.0	2.5	/experiments/knapen_aot/videos/S_yt-DfgpLIP0jnk_105.mp4	0.0	241.58430194854736	0.999722957611084
49	178.1049349308014	movie	1		280	48.0	2.5	/experiments/knapen_aot/videos/S_yt-DfgpLIP0jnk_105.mp4	0.0	242.58402490615845	2.499912977218628
49	180.60484790802002	fix_post	2		12	48.0	2.5	/experiments/knapen_aot/videos/S_yt-DfgpLIP0jnk_105.mp4	0.0	245.08393788337708	0.10028195381164551
50	180.70512986183167	fix_pre	0		120	49.0	2.5	/experiments/knapen_aot/videos/S_yt-ePxv64kEqa0_177.mp4	0.0	245.18421983718872	0.999683141708374
50	181.70481300354004	movie	1		294	49.0	2.5	/experiments/knapen_aot/videos/S_yt-ePxv64kEqa0_177.mp4	0.0	246.1839029788971	2.5001230239868164
50	184.20493602752686	fix_post	2		12	49.0	2.5	/experiments/knapen_aot/videos/S_yt-ePxv64kEqa0_177.mp4	0.0	248.6840260028839	0.0998849868774414
51	184.3048210144043	fix_pre	0		120	50.0	2.5	/experiments/knapen_aot/videos/S_yt-Pd3_4Z2tbFU_47.mp4	0.0	248.78391098976135	1.0000228881835938
51	185.3048439025879	movie	1		241	50.0	2.5	/experiments/knapen_aot/videos/S_yt-Pd3_4Z2tbFU_47.mp4	0.0	249.78393387794495	2.5
51	187.8048439025879	fix_post	2		12	50.0	2.5	/experiments/knapen_aot/videos/S_yt-Pd3_4Z2tbFU_47.mp4	0.0	252.28393387794495	0.09992504119873047
52	187.90476894378662	fix_pre	0		120	51.0	2.5	/experiments/knapen_aot/videos/S_yt-A1XT1fT1c8w_24.mp4	0.0	252.38385891914368	1.0000379085540771
52	188.9048068523407	movie	1		294	51.0	2.5	/experiments/knapen_aot/videos/S_yt-A1XT1fT1c8w_24.mp4	0.0	253.38389682769775	2.5000221729278564
52	191.40482902526855	fix_post	2		12	51.0	2.5	/experiments/knapen_aot/videos/S_yt-A1XT1fT1c8w_24.mp4	0.0	255.8839190006256	0.10005998611450195
53	191.50488901138306	fix_pre	0		120	52.0	2.5	blank	1.0	255.9839789867401	0.9998970031738281
53	192.50478601455688	movie	1		300	52.0	2.5	blank	1.0	256.98387598991394	2.5000998973846436
53	195.00488591194153	fix_post	2		12	52.0	2.5	blank	1.0	259.4839758872986	0.09994697570800781
54	195.10483288764954	fix_pre	0		120	53.0	2.5	/experiments/knapen_aot/videos/S_yt-cILZ_cB3_so_73.mp4	0.0	259.5839228630066	0.9999301433563232
54	196.10476303100586	movie	1		234	53.0	2.5	/experiments/knapen_aot/videos/S_yt-cILZ_cB3_so_73.mp4	0.0	260.5838530063629	2.5000288486480713
54	198.60479187965393	fix_post	2		12	53.0	2.5	/experiments/knapen_aot/videos/S_yt-cILZ_cB3_so_73.mp4	0.0	263.083881855011	0.1000680923461914
55	198.70485997200012	fix_pre	0		120	54.0	2.5	/experiments/knapen_aot/videos/S_yt-gbDSSDcRlg4_31.mp4	0.0	263.1839499473572	0.9998879432678223
55	199.70474791526794	movie	1		281	54.0	2.5	/experiments/knapen_aot/videos/S_yt-gbDSSDcRlg4_31.mp4	0.0	264.183837890625	2.500070095062256
55	202.2048180103302	fix_post	2		12	54.0	2.5	/experiments/knapen_aot/videos/S_yt-gbDSSDcRlg4_31.mp4	0.0	266.68390798568726	0.10004687309265137
56	202.30486488342285	fix_pre	0		120	55.0	2.5	/experiments/knapen_aot/videos/S_yt-MXCxHM_Ms8A_15.mp4	0.0	266.7839548587799	0.9999411106109619
56	203.3048059940338	movie	1		286	55.0	2.5	/experiments/knapen_aot/videos/S_yt-MXCxHM_Ms8A_15.mp4	0.0	267.78389596939087	2.500030040740967
56	205.80483603477478	fix_post	2		12	55.0	2.5	/experiments/knapen_aot/videos/S_yt-MXCxHM_Ms8A_15.mp4	0.0	270.28392601013184	0.09993696212768555
57	205.90477299690247	fix_pre	0		120	56.0	2.5	/experiments/knapen_aot/videos/S_yt-pB-AcJ71tzA_20.mp4	0.0	270.3838629722595	0.9999589920043945
57	206.90473198890686	movie	1		295	56.0	2.5	/experiments/knapen_aot/videos/S_yt-pB-AcJ71tzA_20.mp4	0.0	271.3838219642639	2.4999868869781494
57	209.404718875885	fix_post	2		12	56.0	2.5	/experiments/knapen_aot/videos/S_yt-pB-AcJ71tzA_20.mp4	0.0	273.88380885124207	0.09997105598449707
58	209.5046899318695	fix_pre	0		120	57.0	2.5	/experiments/knapen_aot/videos/S_yt-DO1vncSoiJk_58.mp4	0.0	273.98377990722656	1.0000860691070557
58	210.50477600097656	movie	1		241	57.0	2.5	/experiments/knapen_aot/videos/S_yt-DO1vncSoiJk_58.mp4	0.0	274.9838659763336	2.499866008758545
58	213.0046420097351	fix_post	2		12	57.0	2.5	/experiments/knapen_aot/videos/S_yt-DO1vncSoiJk_58.mp4	0.0	277.48373198509216	0.10026097297668457
59	213.1049029827118	fix_pre	0		120	58.0	2.5	/experiments/knapen_aot/videos/S_yt-ChAhBD9LrsU_223.mp4	0.0	277.58399295806885	0.9998009204864502
59	214.10470390319824	movie	1		286	58.0	2.5	/experiments/knapen_aot/videos/S_yt-ChAhBD9LrsU_223.mp4	0.0	278.5837938785553	2.499994993209839
59	216.60469889640808	fix_post	2		12	58.0	2.5	/experiments/knapen_aot/videos/S_yt-ChAhBD9LrsU_223.mp4	0.0	281.08378887176514	0.0999751091003418
60	216.70467400550842	fix_pre	0		120	59.0	2.5	/experiments/knapen_aot/videos/S_yt-P2RwcXMKIbQ_1.mp4	0.0	281.1837639808655	1.0000169277191162
60	217.70469093322754	movie	1		245	59.0	2.5	/experiments/knapen_aot/videos/S_yt-P2RwcXMKIbQ_1.mp4	0.0	282.1837809085846	2.625062942504883
60	220.32975387573242	fix_post	2		0	59.0	2.5	/experiments/knapen_aot/videos/S_yt-P2RwcXMKIbQ_1.mp4	0.0	284.8088438510895	0.002237081527709961
61	220.33199095726013	fix_pre	0		117	60.0	2.5	/experiments/knapen_aot/videos/S_2E67nCgRCGk_75.mp4	0.0	284.8110809326172	0.972632884979248
61	221.30462384223938	movie	1		292	60.0	2.5	/experiments/knapen_aot/videos/S_2E67nCgRCGk_75.mp4	0.0	285.78371381759644	2.5000641345977783
61	223.80468797683716	fix_post	2		12	60.0	2.5	/experiments/knapen_aot/videos/S_2E67nCgRCGk_75.mp4	0.0	288.2837779521942	0.0999138355255127
62	223.90460181236267	fix_pre	0		120	61.0	2.5	/experiments/knapen_aot/videos/S_yt-2U5u3lLJx5M_7.mp4	0.0	288.3836917877197	1.000049114227295
62	224.90465092658997	movie	1		287	61.0	2.5	/experiments/knapen_aot/videos/S_yt-2U5u3lLJx5M_7.mp4	0.0	289.383740901947	2.4999589920043945
62	227.40460991859436	fix_post	2		12	61.0	2.5	/experiments/knapen_aot/videos/S_yt-2U5u3lLJx5M_7.mp4	0.0	291.8836998939514	0.10006189346313477
63	227.5046718120575	fix_pre	0		120	62.0	2.5	/experiments/knapen_aot/videos/S_yt-RL1chIcbTPQ_11.mp4	0.0	291.98376178741455	0.9999260902404785
63	228.50459790229797	movie	1		282	62.0	2.5	/experiments/knapen_aot/videos/S_yt-RL1chIcbTPQ_11.mp4	0.0	292.98368787765503	2.500088930130005
63	231.00468683242798	fix_post	2		12	62.0	2.5	/experiments/knapen_aot/videos/S_yt-RL1chIcbTPQ_11.mp4	0.0	295.48377680778503	0.09995412826538086
64	231.10464096069336	fix_pre	0		120	63.0	2.5	/experiments/knapen_aot/videos/S_yt-u0N1IsXxLM4_103.mp4	0.0	295.5837309360504	0.9999709129333496
64	232.1046118736267	movie	1		289	63.0	2.5	/experiments/knapen_aot/videos/S_yt-u0N1IsXxLM4_103.mp4	0.0	296.58370184898376	2.500070095062256
64	234.60468196868896	fix_post	2		12	63.0	2.5	/experiments/knapen_aot/videos/S_yt-u0N1IsXxLM4_103.mp4	0.0	299.083771944046	0.09994387626647949
65	234.70462584495544	fix_pre	0		120	64.0	2.5	/experiments/knapen_aot/videos/S_yt-VyVvEvP6MRM_124.mp4	0.0	299.1837158203125	1.0000271797180176
65	235.70465302467346	movie	1		290	64.0	2.5	/experiments/knapen_aot/videos/S_yt-VyVvEvP6MRM_124.mp4	0.0	300.1837430000305	2.4999709129333496
65	238.2046239376068	fix_post	2		12	64.0	2.5	/experiments/knapen_aot/videos/S_yt-VyVvEvP6MRM_124.mp4	0.0	302.68371391296387	0.10001587867736816
66	238.30463981628418	fix_pre	0		120	65.0	2.5	/experiments/knapen_aot/videos/S_yt-GBqXIFjZf8w_28.mp4	0.0	302.78372979164124	0.9999639987945557
66	239.30460381507874	movie	1		254	65.0	2.5	/experiments/knapen_aot/videos/S_yt-GBqXIFjZf8w_28.mp4	0.0	303.7836937904358	2.69156813621521
66	241.99617195129395	fix_post	2		0	65.0	2.5	/experiments/knapen_aot/videos/S_yt-GBqXIFjZf8w_28.mp4	0.0	306.475261926651	0.0027670860290527344
67	241.998939037323	fix_pre	0		109	66.0	2.5	blank	1.0	306.47802901268005	0.9056508541107178
67	242.90458989143372	movie	1		300	66.0	2.5	blank	1.0	307.38367986679077	2.499917984008789
67	245.4045078754425	fix_post	2		12	66.0	2.5	blank	1.0	309.88359785079956	0.1001729965209961
68	245.5046808719635	fix_pre	0		120	67.0	2.5	/experiments/knapen_aot/videos/S_yt-hjqjWlzPRjY_76.mp4	0.0	309.98377084732056	0.9998750686645508
68	246.50455594062805	movie	1		295	67.0	2.5	/experiments/knapen_aot/videos/S_yt-hjqjWlzPRjY_76.mp4	0.0	310.9836459159851	2.500016927719116
68	249.00457286834717	fix_post	2		12	67.0	2.5	/experiments/knapen_aot/videos/S_yt-hjqjWlzPRjY_76.mp4	0.0	313.4836628437042	0.09998416900634766
69	249.10455703735352	fix_pre	0		120	68.0	2.5	/experiments/knapen_aot/videos/S_yt-bWXohhodbjg_86.mp4	0.0	313.58364701271057	0.9999828338623047
69	250.10453987121582	movie	1		293	68.0	2.5	/experiments/knapen_aot/videos/S_yt-bWXohhodbjg_86.mp4	0.0	314.5836298465729	2.4999630451202393
69	252.60450291633606	fix_post	2		12	68.0	2.5	/experiments/knapen_aot/videos/S_yt-bWXohhodbjg_86.mp4	0.0	317.0835928916931	0.10006499290466309
70	252.70456790924072	fix_pre	0		120	69.0	2.5	/experiments/knapen_aot/videos/S_CHWw361oMSQ_195.mp4	0.0	317.1836578845978	0.9999799728393555
70	253.70454788208008	movie	1		292	69.0	2.5	/experiments/knapen_aot/videos/S_CHWw361oMSQ_195.mp4	0.0	318.18363785743713	2.5
70	256.2045478820801	fix_post	2		12	69.0	2.5	/experiments/knapen_aot/videos/S_CHWw361oMSQ_195.mp4	0.0	320.68363785743713	0.09995293617248535
71	256.30450081825256	fix_pre	0		120	70.0	2.5	/experiments/knapen_aot/videos/S_yt-cWBQB8CxsVY_69.mp4	0.0	320.7835907936096	1.4846360683441162
71	257.7891368865967	movie	1		182	70.0	2.5	/experiments/knapen_aot/videos/S_yt-cWBQB8CxsVY_69.mp4	0.0	322.26822686195374	2.482125997543335
71	260.27126288414	fix_post	2		0	70.0	2.5	/experiments/knapen_aot/videos/S_yt-cWBQB8CxsVY_69.mp4	0.0	324.75035285949707	0.002502918243408203
72	260.2737658023834	fix_pre	0		76	71.0	2.5	/experiments/knapen_aot/videos/S_yt-g_RCws799LQ_52.mp4	0.0	324.7528557777405	1.1199321746826172
72	261.39369797706604	movie	1		122	71.0	2.5	/experiments/knapen_aot/videos/S_yt-g_RCws799LQ_52.mp4	0.0	325.8727879524231	2.011157989501953
72	263.404855966568	fix_post	2		12	71.0	2.5	/experiments/knapen_aot/videos/S_yt-g_RCws799LQ_52.mp4	0.0	327.88394594192505	0.10000491142272949
73	263.5048608779907	fix_pre	0		120	72.0	2.5	/experiments/knapen_aot/videos/S_ILSVRC2015_train_00611000.mp4	0.0	327.9839508533478	0.9996349811553955
73	264.5044958591461	movie	1		8	72.0	2.5	/experiments/knapen_aot/videos/S_ILSVRC2015_train_00611000.mp4	0.0	328.9835858345032	0.5583269596099854
