trial_nr	onset	event_type	phase	response	nr_frames	movie_index	movie_duration	movie_file	blank	onset_abs	duration
0	0.16937470436096191	stim	0		1942					58.841909408569336	16.184776544570923
0	16.34492301940918	response	0	space						75.01745772361755	
1	16.354151248931885	fix_pre	0		121	0.0	2.5	/experiments/Knapen_AOT/aot_oldvideos/S_yt-loe3Rqs8TEM_46.mp4	0.0	75.02668595314026	1.0154106616973877
1	17.369561910629272	movie	1		282	0.0	2.5	/experiments/Knapen_AOT/aot_oldvideos/S_yt-loe3Rqs8TEM_46.mp4	0.0	76.04209661483765	2.4846107959747314
1	19.854172706604004	fix_post	2		13	0.0	2.5	/experiments/Knapen_AOT/aot_oldvideos/S_yt-loe3Rqs8TEM_46.mp4	0.0	78.52670741081238	0.10706853866577148
2	19.961241245269775	fix_pre	0		120	1.0	2.5	/experiments/Knapen_AOT/aot_oldvideos/S_yt-Z_irN6cNiD4_148.mp4	0.0	78.63377594947815	0.9999940395355225
2	20.961235284805298	movie	1		295	1.0	2.5	/experiments/Knapen_AOT/aot_oldvideos/S_yt-Z_irN6cNiD4_148.mp4	0.0	79.63376998901367	2.500046730041504
2	23.4612820148468	fix_post	2		12	1.0	2.5	/experiments/Knapen_AOT/aot_oldvideos/S_yt-Z_irN6cNiD4_148.mp4	0.0	82.13381671905518	0.09998226165771484
3	23.561264276504517	fix_pre	0		120	2.0	2.5	/experiments/Knapen_AOT/aot_oldvideos/S_yt-t9sowxGR_s4_1.mp4	0.0	82.23379898071289	1.0013892650604248
3	24.56265354156494	movie	1		290	2.0	2.5	/experiments/Knapen_AOT/aot_oldvideos/S_yt-t9sowxGR_s4_1.mp4	0.0	83.23518824577332	2.4986746311187744
3	27.061328172683716	fix_post	2		12	2.0	2.5	/experiments/Knapen_AOT/aot_oldvideos/S_yt-t9sowxGR_s4_1.mp4	0.0	85.73386287689209	0.09998750686645508
4	27.16131567955017	fix_pre	0		120	3.0	2.5	/experiments/Knapen_AOT/aot_oldvideos/S_yt-6_SgWsPne7M_11.mp4	0.0	85.83385038375854	1.0055313110351562
4	28.166846990585327	movie	1		292	3.0	2.5	/experiments/Knapen_AOT/aot_oldvideos/S_yt-6_SgWsPne7M_11.mp4	0.0	86.8393816947937	2.494537591934204
4	30.66138458251953	fix_post	2		12	3.0	2.5	/experiments/Knapen_AOT/aot_oldvideos/S_yt-6_SgWsPne7M_11.mp4	0.0	89.3339192867279	0.09997987747192383
5	30.761364459991455	fix_pre	0		120	4.0	2.5	/experiments/Knapen_AOT/aot_oldvideos/S_yt-n12iRXTksXA_65.mp4	0.0	89.43389916419983	1.0027368068695068
5	31.764101266860962	movie	1		299	4.0	2.5	/experiments/Knapen_AOT/aot_oldvideos/S_yt-n12iRXTksXA_65.mp4	0.0	90.43663597106934	2.4973208904266357
5	34.2614221572876	fix_post	2		12	4.0	2.5	/experiments/Knapen_AOT/aot_oldvideos/S_yt-n12iRXTksXA_65.mp4	0.0	92.93395686149597	0.09998965263366699
6	34.361411809921265	fix_pre	0		120	5.0	2.5	blank	1.0	93.03394651412964	0.9999985694885254
6	35.36141037940979	movie	1		300	5.0	2.5	blank	1.0	94.03394508361816	2.500089645385742
6	37.86150002479553	fix_post	2		12	5.0	2.5	blank	1.0	96.5340347290039	0.0999760627746582
7	37.96147608757019	fix_pre	0		120	6.0	2.5	/experiments/Knapen_AOT/aot_oldvideos/S_yt-S6N5FyjSFZE_4.mp4	0.0	96.63401079177856	1.004018783569336
7	38.965494871139526	movie	1		286	6.0	2.5	/experiments/Knapen_AOT/aot_oldvideos/S_yt-S6N5FyjSFZE_4.mp4	0.0	97.6380295753479	2.496004581451416
7	41.46149945259094	fix_post	2		12	6.0	2.5	/experiments/Knapen_AOT/aot_oldvideos/S_yt-S6N5FyjSFZE_4.mp4	0.0	100.13403415679932	0.10000729560852051
8	41.56150674819946	fix_pre	0		120	7.0	2.5	/experiments/Knapen_AOT/aot_oldvideos/S_yt-sZBe-xmTySc_8.mp4	0.0	100.23404145240784	1.001347541809082
8	42.562854290008545	movie	1		291	7.0	2.5	/experiments/Knapen_AOT/aot_oldvideos/S_yt-sZBe-xmTySc_8.mp4	0.0	101.23538899421692	2.4987094402313232
8	45.06156373023987	fix_post	2		12	7.0	2.5	/experiments/Knapen_AOT/aot_oldvideos/S_yt-sZBe-xmTySc_8.mp4	0.0	103.73409843444824	0.10002350807189941
9	45.16158723831177	fix_pre	0		120	8.0	2.5	/experiments/Knapen_AOT/aot_oldvideos/S_yt-qHUewJuLW4o_19.mp4	0.0	103.83412194252014	1.0053980350494385
9	46.166985273361206	movie	1		293	8.0	2.5	/experiments/Knapen_AOT/aot_oldvideos/S_yt-qHUewJuLW4o_19.mp4	0.0	104.83951997756958	2.494605779647827
9	48.66159105300903	fix_post	2		12	8.0	2.5	/experiments/Knapen_AOT/aot_oldvideos/S_yt-qHUewJuLW4o_19.mp4	0.0	107.33412575721741	0.10019350051879883
10	48.76178455352783	fix_pre	0		120	9.0	2.5	/experiments/Knapen_AOT/aot_oldvideos/S_yt-YZO4_2yJLWE_1447.mp4	0.0	107.4343192577362	1.008171558380127
10	49.76995611190796	movie	1		291	9.0	2.5	/experiments/Knapen_AOT/aot_oldvideos/S_yt-YZO4_2yJLWE_1447.mp4	0.0	108.44249081611633	2.4917032718658447
10	52.261659383773804	fix_post	2		12	9.0	2.5	/experiments/Knapen_AOT/aot_oldvideos/S_yt-YZO4_2yJLWE_1447.mp4	0.0	110.93419408798218	0.09999299049377441
11	52.36165237426758	fix_pre	0		120	10.0	2.5	blank	1.0	111.03418707847595	1.0000019073486328
11	53.36165428161621	movie	1		300	10.0	2.5	blank	1.0	112.03418898582458	2.5000529289245605
11	55.86170721054077	fix_post	2		12	10.0	2.5	blank	1.0	114.53424191474915	0.1000368595123291
12	55.9617440700531	fix_pre	0		120	11.0	2.5	/experiments/Knapen_AOT/aot_oldvideos/S_yt-GpVFUM8K0yE_68.mp4	0.0	114.63427877426147	1.0039241313934326
12	56.96566820144653	movie	1		294	11.0	2.5	/experiments/Knapen_AOT/aot_oldvideos/S_yt-GpVFUM8K0yE_68.mp4	0.0	115.63820290565491	2.4960851669311523
12	59.461753368377686	fix_post	2		12	11.0	2.5	/experiments/Knapen_AOT/aot_oldvideos/S_yt-GpVFUM8K0yE_68.mp4	0.0	118.13428807258606	0.10112118721008301
13	59.56287455558777	fix_pre	0		120	12.0	2.5	/experiments/Knapen_AOT/aot_oldvideos/S_yt-Hs5HF3mTQ7A_9.mp4	0.0	118.23540925979614	1.0000195503234863
13	60.562894105911255	movie	1		289	12.0	2.5	/experiments/Knapen_AOT/aot_oldvideos/S_yt-Hs5HF3mTQ7A_9.mp4	0.0	119.23542881011963	2.4988977909088135
13	63.06179189682007	fix_post	2		12	12.0	2.5	/experiments/Knapen_AOT/aot_oldvideos/S_yt-Hs5HF3mTQ7A_9.mp4	0.0	121.73432660102844	0.09999299049377441
14	63.16178488731384	fix_pre	0		120	13.0	2.5	/experiments/Knapen_AOT/aot_oldvideos/S_yt-ZmoUDsP2y40_8.mp4	0.0	121.83431959152222	1.000007152557373
14	64.16179203987122	movie	1		293	13.0	2.5	/experiments/Knapen_AOT/aot_oldvideos/S_yt-ZmoUDsP2y40_8.mp4	0.0	122.83432674407959	2.500030755996704
14	66.66182279586792	fix_post	2		12	13.0	2.5	/experiments/Knapen_AOT/aot_oldvideos/S_yt-ZmoUDsP2y40_8.mp4	0.0	125.3343575000763	0.10002684593200684
15	66.76184964179993	fix_pre	0		120	14.0	2.5	blank	1.0	125.4343843460083	1.0000028610229492
15	67.76185250282288	movie	1		300	14.0	2.5	blank	1.0	126.43438720703125	2.5000181198120117
15	70.26187062263489	fix_post	2		12	14.0	2.5	blank	1.0	128.93440532684326	0.09999704360961914
16	70.3618676662445	fix_pre	0		120	15.0	2.5	blank	1.0	129.03440237045288	1.0000004768371582
16	71.36186814308167	movie	1		300	15.0	2.5	blank	1.0	130.03440284729004	2.500040054321289
16	73.86190819740295	fix_post	2		12	15.0	2.5	blank	1.0	132.53444290161133	0.10004305839538574
17	73.96195125579834	fix_pre	0		120	16.0	2.5	/experiments/Knapen_AOT/aot_oldvideos/S_yt-H2y1th4WaWU_51.mp4	0.0	132.6344859600067	1.0038247108459473
17	74.96577596664429	movie	1		288	16.0	2.5	/experiments/Knapen_AOT/aot_oldvideos/S_yt-H2y1th4WaWU_51.mp4	0.0	133.63831067085266	2.4961910247802734
17	77.46196699142456	fix_post	2		12	16.0	2.5	/experiments/Knapen_AOT/aot_oldvideos/S_yt-H2y1th4WaWU_51.mp4	0.0	136.13450169563293	0.10002255439758301
18	77.56198954582214	fix_pre	0		120	17.0	2.5	/experiments/Knapen_AOT/aot_oldvideos/S_production_ID_4820331.mp4	0.0	136.23452425003052	1.0083019733428955
18	78.57029151916504	movie	1		159	17.0	2.5	/experiments/Knapen_AOT/aot_oldvideos/S_production_ID_4820331.mp4	0.0	137.2428262233734	2.485707998275757
18	81.0559995174408	fix_post	2		13	17.0	2.5	/experiments/Knapen_AOT/aot_oldvideos/S_production_ID_4820331.mp4	0.0	139.72853422164917	0.10605049133300781
19	81.1620500087738	fix_pre	0		120	18.0	2.5	blank	1.0	139.83458471298218	1.0000035762786865
19	82.16205358505249	movie	1		300	18.0	2.5	blank	1.0	140.83458828926086	2.4999938011169434
19	84.66204738616943	fix_post	2		12	18.0	2.5	blank	1.0	143.3345820903778	0.10001230239868164
20	84.76205968856812	fix_pre	0		120	19.0	2.5	/experiments/Knapen_AOT/aot_oldvideos/S_yt-fAWPQRcrXl0_38.mp4	0.0	143.4345943927765	1.0083653926849365
20	85.77042508125305	movie	1		292	19.0	2.5	/experiments/Knapen_AOT/aot_oldvideos/S_yt-fAWPQRcrXl0_38.mp4	0.0	144.44295978546143	2.491675853729248
20	88.2621009349823	fix_post	2		12	19.0	2.5	/experiments/Knapen_AOT/aot_oldvideos/S_yt-fAWPQRcrXl0_38.mp4	0.0	146.93463563919067	0.09998202323913574
21	88.36208295822144	fix_pre	0		120	20.0	2.5	blank	1.0	147.0346176624298	1.0000336170196533
21	89.36211657524109	movie	1		300	20.0	2.5	blank	1.0	148.03465127944946	2.5000226497650146
21	91.8621392250061	fix_post	2		12	20.0	2.5	blank	1.0	150.53467392921448	0.10001277923583984
22	91.96215200424194	fix_pre	0		120	21.0	2.5	/experiments/Knapen_AOT/aot_oldvideos/S_yt-A-RhzHTz38g_21.mp4	0.0	150.63468670845032	1.003753423690796
22	92.96590542793274	movie	1		286	21.0	2.5	/experiments/Knapen_AOT/aot_oldvideos/S_yt-A-RhzHTz38g_21.mp4	0.0	151.6384401321411	2.496286153793335
22	95.46219158172607	fix_post	2		12	21.0	2.5	/experiments/Knapen_AOT/aot_oldvideos/S_yt-A-RhzHTz38g_21.mp4	0.0	154.13472628593445	0.10000276565551758
23	95.56219434738159	fix_pre	0		120	22.0	2.5	blank	1.0	154.23472905158997	1.0009453296661377
23	96.56313967704773	movie	1		300	22.0	2.5	blank	1.0	155.2356743812561	2.499131441116333
23	99.06227111816406	fix_post	2		12	22.0	2.5	blank	1.0	157.73480582237244	0.09998226165771484
24	99.16225337982178	fix_pre	0		120	23.0	2.5	/experiments/Knapen_AOT/aot_oldvideos/S_yt-oypn4VCTu6U_279.mp4	0.0	157.83478808403015	0.9999935626983643
24	100.16224694252014	movie	1		291	23.0	2.5	/experiments/Knapen_AOT/aot_oldvideos/S_yt-oypn4VCTu6U_279.mp4	0.0	158.83478164672852	2.4916911125183105
24	102.65393805503845	fix_post	2		13	23.0	2.5	/experiments/Knapen_AOT/aot_oldvideos/S_yt-oypn4VCTu6U_279.mp4	0.0	161.32647275924683	0.1083536148071289
25	102.76229166984558	fix_pre	0		120	24.0	2.5	/experiments/Knapen_AOT/aot_oldvideos/S_ILSVRC2015_train_00661004.mp4	0.0	161.43482637405396	1.002333164215088
25	103.76462483406067	movie	1		291	24.0	2.5	/experiments/Knapen_AOT/aot_oldvideos/S_ILSVRC2015_train_00661004.mp4	0.0	162.43715953826904	2.497709035873413
25	106.26233386993408	fix_post	2		12	24.0	2.5	/experiments/Knapen_AOT/aot_oldvideos/S_ILSVRC2015_train_00661004.mp4	0.0	164.93486857414246	0.0999901294708252
26	106.36232399940491	fix_pre	0		120	25.0	2.5	/experiments/Knapen_AOT/aot_oldvideos/S_yt-xUPucH7kNAs_178.mp4	0.0	165.03485870361328	1.0000357627868652
26	107.36235976219177	movie	1		289	25.0	2.5	/experiments/Knapen_AOT/aot_oldvideos/S_yt-xUPucH7kNAs_178.mp4	0.0	166.03489446640015	2.4924795627593994
26	109.85483932495117	fix_post	2		13	25.0	2.5	/experiments/Knapen_AOT/aot_oldvideos/S_yt-xUPucH7kNAs_178.mp4	0.0	168.52737402915955	0.10752582550048828
27	109.96236515045166	fix_pre	0		120	26.0	2.5	blank	1.0	168.63489985466003	1.000058650970459
27	110.96242380142212	movie	1		300	26.0	2.5	blank	1.0	169.6349585056305	2.4999868869781494
27	113.46241068840027	fix_post	2		12	26.0	2.5	blank	1.0	172.13494539260864	0.10000729560852051
28	113.56241798400879	fix_pre	0		120	27.0	2.5	/experiments/Knapen_AOT/aot_oldvideos/S_yt-e5ua5Pj86E4_140.mp4	0.0	172.23495268821716	1.0008947849273682
28	114.56331276893616	movie	1		292	27.0	2.5	/experiments/Knapen_AOT/aot_oldvideos/S_yt-e5ua5Pj86E4_140.mp4	0.0	173.23584747314453	2.499157190322876
28	117.06246995925903	fix_post	2		12	27.0	2.5	/experiments/Knapen_AOT/aot_oldvideos/S_yt-e5ua5Pj86E4_140.mp4	0.0	175.7350046634674	0.10002350807189941
29	117.16249346733093	fix_pre	0		120	28.0	2.5	/experiments/Knapen_AOT/aot_oldvideos/S_ILSVRC2015_train_00415002.mp4	0.0	175.8350281715393	1.0050060749053955
29	118.16749954223633	movie	1		289	28.0	2.5	/experiments/Knapen_AOT/aot_oldvideos/S_ILSVRC2015_train_00415002.mp4	0.0	176.8400342464447	2.486673355102539
29	120.65417289733887	fix_post	2		13	28.0	2.5	/experiments/Knapen_AOT/aot_oldvideos/S_ILSVRC2015_train_00415002.mp4	0.0	179.32670760154724	0.10832905769348145
30	120.76250195503235	fix_pre	0		120	29.0	2.5	/experiments/Knapen_AOT/aot_oldvideos/S_yt-a_awONsLFfE_107.mp4	0.0	179.43503665924072	1.0022783279418945
30	121.76478028297424	movie	1		289	29.0	2.5	/experiments/Knapen_AOT/aot_oldvideos/S_yt-a_awONsLFfE_107.mp4	0.0	180.43731498718262	2.4977810382843018
30	124.26256132125854	fix_post	2		12	29.0	2.5	/experiments/Knapen_AOT/aot_oldvideos/S_yt-a_awONsLFfE_107.mp4	0.0	182.93509602546692	0.10000371932983398
31	124.36256504058838	fix_pre	0		120	30.0	2.5	/experiments/Knapen_AOT/aot_oldvideos/S_yt-65cexqxy5lU_35.mp4	0.0	183.03509974479675	1.0083515644073486
31	125.37091660499573	movie	1		293	30.0	2.5	/experiments/Knapen_AOT/aot_oldvideos/S_yt-65cexqxy5lU_35.mp4	0.0	184.0434513092041	2.4841361045837402
31	127.85505270957947	fix_post	2		13	30.0	2.5	/experiments/Knapen_AOT/aot_oldvideos/S_yt-65cexqxy5lU_35.mp4	0.0	186.52758741378784	0.10755658149719238
32	127.96260929107666	fix_pre	0		120	31.0	2.5	/experiments/Knapen_AOT/aot_oldvideos/S_yt-JxqSboqaUPY_5.mp4	0.0	186.63514399528503	1.0035638809204102
32	128.96617317199707	movie	1		285	31.0	2.5	/experiments/Knapen_AOT/aot_oldvideos/S_yt-JxqSboqaUPY_5.mp4	0.0	187.63870787620544	2.496476411819458
32	131.46264958381653	fix_post	2		12	31.0	2.5	/experiments/Knapen_AOT/aot_oldvideos/S_yt-JxqSboqaUPY_5.mp4	0.0	190.1351842880249	0.10011601448059082
33	131.56276559829712	fix_pre	0		120	32.0	2.5	/experiments/Knapen_AOT/aot_oldvideos/S_yt-Y32yFYRmNVU_22.mp4	0.0	190.2353003025055	1.0007131099700928
33	132.5634787082672	movie	1		292	32.0	2.5	/experiments/Knapen_AOT/aot_oldvideos/S_yt-Y32yFYRmNVU_22.mp4	0.0	191.2360134124756	2.499238967895508
33	135.06271767616272	fix_post	2		12	32.0	2.5	/experiments/Knapen_AOT/aot_oldvideos/S_yt-Y32yFYRmNVU_22.mp4	0.0	193.7352523803711	0.10000777244567871
34	135.1627254486084	fix_pre	0		120	33.0	2.5	/experiments/Knapen_AOT/aot_oldvideos/S_yt-AJypa57HKqM_28.mp4	0.0	193.83526015281677	0.9999732971191406
34	136.16269874572754	movie	1		297	33.0	2.5	/experiments/Knapen_AOT/aot_oldvideos/S_yt-AJypa57HKqM_28.mp4	0.0	194.8352334499359	2.491697072982788
34	138.65439581871033	fix_post	2		13	33.0	2.5	/experiments/Knapen_AOT/aot_oldvideos/S_yt-AJypa57HKqM_28.mp4	0.0	197.3269305229187	0.10833597183227539
35	138.7627317905426	fix_pre	0		120	34.0	2.5	/experiments/Knapen_AOT/aot_oldvideos/S_yt-YWfInCviN1s_126.mp4	0.0	197.43526649475098	1.0021660327911377
35	139.76489782333374	movie	1		293	34.0	2.5	/experiments/Knapen_AOT/aot_oldvideos/S_yt-YWfInCviN1s_126.mp4	0.0	198.43743252754211	2.497897148132324
35	142.26279497146606	fix_post	2		12	34.0	2.5	/experiments/Knapen_AOT/aot_oldvideos/S_yt-YWfInCviN1s_126.mp4	0.0	200.93532967567444	0.09997081756591797
36	142.36276578903198	fix_pre	0		120	35.0	2.5	/experiments/Knapen_AOT/aot_oldvideos/S_yt-Uih643A1YtA_110.mp4	0.0	201.03530049324036	1.0000205039978027
36	143.36278629302979	movie	1		293	35.0	2.5	/experiments/Knapen_AOT/aot_oldvideos/S_yt-Uih643A1YtA_110.mp4	0.0	202.03532099723816	2.4923040866851807
36	145.85509037971497	fix_post	2		13	35.0	2.5	/experiments/Knapen_AOT/aot_oldvideos/S_yt-Uih643A1YtA_110.mp4	0.0	204.52762508392334	0.1077580451965332
37	145.9628484249115	fix_pre	0		120	36.0	2.5	/experiments/Knapen_AOT/aot_oldvideos/S_ILSVRC2015_train_00552000.mp4	0.0	204.63538312911987	1.003462314605713
37	146.9663107395172	movie	1		293	36.0	2.5	/experiments/Knapen_AOT/aot_oldvideos/S_ILSVRC2015_train_00552000.mp4	0.0	205.6388454437256	2.496577024459839
37	149.46288776397705	fix_post	2		12	36.0	2.5	/experiments/Knapen_AOT/aot_oldvideos/S_ILSVRC2015_train_00552000.mp4	0.0	208.13542246818542	0.10071492195129395
38	149.56360268592834	fix_pre	0		120	37.0	2.5	/experiments/Knapen_AOT/aot_oldvideos/S_yt-9PTQ4U4oPUU_243.mp4	0.0	208.23613739013672	0.9999597072601318
38	150.56356239318848	movie	1		292	37.0	2.5	/experiments/Knapen_AOT/aot_oldvideos/S_yt-9PTQ4U4oPUU_243.mp4	0.0	209.23609709739685	2.4993772506713867
38	153.06293964385986	fix_post	2		12	37.0	2.5	/experiments/Knapen_AOT/aot_oldvideos/S_yt-9PTQ4U4oPUU_243.mp4	0.0	211.73547434806824	0.1000216007232666
39	153.16296124458313	fix_pre	0		120	38.0	2.5	/experiments/Knapen_AOT/aot_oldvideos/S_yt-VypeVQ7gJ_k_578.mp4	0.0	211.8354959487915	0.9999711513519287
39	154.16293239593506	movie	1		292	38.0	2.5	/experiments/Knapen_AOT/aot_oldvideos/S_yt-VypeVQ7gJ_k_578.mp4	0.0	212.83546710014343	2.491696834564209
39	156.65462923049927	fix_post	2		13	38.0	2.5	/experiments/Knapen_AOT/aot_oldvideos/S_yt-VypeVQ7gJ_k_578.mp4	0.0	215.32716393470764	0.10834836959838867
40	156.76297760009766	fix_pre	0		119	39.0	2.5	/experiments/Knapen_AOT/aot_oldvideos/S_yt-DpLc4e4bpu0_1467.mp4	0.0	215.43551230430603	0.9950642585754395
40	157.7580418586731	movie	1		296	39.0	2.5	/experiments/Knapen_AOT/aot_oldvideos/S_yt-DpLc4e4bpu0_1467.mp4	0.0	216.43057656288147	2.504995346069336
40	160.26303720474243	fix_post	2		11	39.0	2.5	/experiments/Knapen_AOT/aot_oldvideos/S_yt-DpLc4e4bpu0_1467.mp4	0.0	218.9355719089508	0.09223723411560059
41	160.35527443885803	fix_pre	0		121	40.0	2.5	/experiments/Knapen_AOT/aot_oldvideos/S_yt-sBdvBO-TPNM_8.mp4	0.0	219.0278091430664	1.0077314376831055
41	161.36300587654114	movie	1		287	40.0	2.5	/experiments/Knapen_AOT/aot_oldvideos/S_yt-sBdvBO-TPNM_8.mp4	0.0	220.0355405807495	2.4917731285095215
41	163.85477900505066	fix_post	2		12	40.0	2.5	/experiments/Knapen_AOT/aot_oldvideos/S_yt-sBdvBO-TPNM_8.mp4	0.0	222.52731370925903	0.09998655319213867
42	163.9547655582428	fix_pre	0		120	41.0	2.5	blank	1.0	222.62730026245117	0.9999868869781494
42	164.95475244522095	movie	1		300	41.0	2.5	blank	1.0	223.62728714942932	2.500053882598877
42	167.45480632781982	fix_post	2		12	41.0	2.5	blank	1.0	226.1273410320282	0.09996747970581055
43	167.55477380752563	fix_pre	0		120	42.0	2.5	/experiments/Knapen_AOT/aot_oldvideos/S_yt-4slVHFGPwEs_744.mp4	0.0	226.227308511734	1.0020077228546143
43	168.55678153038025	movie	1		291	42.0	2.5	/experiments/Knapen_AOT/aot_oldvideos/S_yt-4slVHFGPwEs_744.mp4	0.0	227.22931623458862	2.49807071685791
43	171.05485224723816	fix_post	2		12	42.0	2.5	/experiments/Knapen_AOT/aot_oldvideos/S_yt-4slVHFGPwEs_744.mp4	0.0	229.72738695144653	0.09997725486755371
44	171.1548295021057	fix_pre	0		120	43.0	2.5	/experiments/Knapen_AOT/aot_oldvideos/S_yt-mOQJwaPQbMg_5.mp4	0.0	229.8273642063141	0.9999847412109375
44	172.15481424331665	movie	1		290	43.0	2.5	/experiments/Knapen_AOT/aot_oldvideos/S_yt-mOQJwaPQbMg_5.mp4	0.0	230.82734894752502	2.500049352645874
44	174.65486359596252	fix_post	2		12	43.0	2.5	/experiments/Knapen_AOT/aot_oldvideos/S_yt-mOQJwaPQbMg_5.mp4	0.0	233.3273983001709	0.10001516342163086
45	174.75487875938416	fix_pre	0		120	44.0	2.5	/experiments/Knapen_AOT/aot_oldvideos/S_yt-q8mfIumbHuo_84.mp4	0.0	233.42741346359253	1.0033912658691406
45	175.7582700252533	movie	1		295	44.0	2.5	/experiments/Knapen_AOT/aot_oldvideos/S_yt-q8mfIumbHuo_84.mp4	0.0	234.43080472946167	2.4966583251953125
45	178.2549283504486	fix_post	2		12	44.0	2.5	/experiments/Knapen_AOT/aot_oldvideos/S_yt-q8mfIumbHuo_84.mp4	0.0	236.92746305465698	0.10051751136779785
46	178.3554458618164	fix_pre	0		120	45.0	2.5	/experiments/Knapen_AOT/aot_oldvideos/S_yt-jovPh9BdlYI_215.mp4	0.0	237.02798056602478	0.9999823570251465
46	179.35542821884155	movie	1		289	45.0	2.5	/experiments/Knapen_AOT/aot_oldvideos/S_yt-jovPh9BdlYI_215.mp4	0.0	238.02796292304993	2.4995367527008057
46	181.85496497154236	fix_post	2		12	45.0	2.5	/experiments/Knapen_AOT/aot_oldvideos/S_yt-jovPh9BdlYI_215.mp4	0.0	240.52749967575073	0.10006928443908691
47	181.95503425598145	fix_pre	0		120	46.0	2.5	/experiments/Knapen_AOT/aot_oldvideos/S_yt-jsG6vM9Lkoc_318.mp4	0.0	240.62756896018982	0.9999351501464844
47	182.95496940612793	movie	1		294	46.0	2.5	/experiments/Knapen_AOT/aot_oldvideos/S_yt-jsG6vM9Lkoc_318.mp4	0.0	241.6275041103363	2.5000314712524414
47	185.45500087738037	fix_post	2		12	46.0	2.5	/experiments/Knapen_AOT/aot_oldvideos/S_yt-jsG6vM9Lkoc_318.mp4	0.0	244.12753558158875	0.10004043579101562
48	185.5550413131714	fix_pre	0		120	47.0	2.5	/experiments/Knapen_AOT/aot_oldvideos/S_ILSVRC2015_train_00536000.mp4	0.0	244.22757601737976	1.0018439292907715
48	186.55688524246216	movie	1		286	47.0	2.5	/experiments/Knapen_AOT/aot_oldvideos/S_ILSVRC2015_train_00536000.mp4	0.0	245.22941994667053	2.498173713684082
48	189.05505895614624	fix_post	2		11	47.0	2.5	/experiments/Knapen_AOT/aot_oldvideos/S_ILSVRC2015_train_00536000.mp4	0.0	247.72759366035461	0.09999299049377441
49	189.15505194664001	fix_pre	0		120	48.0	2.5	/experiments/Knapen_AOT/aot_oldvideos/S_yt-DfgpLIP0jnk_105.mp4	0.0	247.8275866508484	0.9999866485595703
49	190.15503859519958	movie	1		286	48.0	2.5	/experiments/Knapen_AOT/aot_oldvideos/S_yt-DfgpLIP0jnk_105.mp4	0.0	248.82757329940796	2.500049352645874
49	192.65508794784546	fix_post	2		12	48.0	2.5	/experiments/Knapen_AOT/aot_oldvideos/S_yt-DfgpLIP0jnk_105.mp4	0.0	251.32762265205383	0.10001826286315918
50	192.75510621070862	fix_pre	0		104	49.0	2.5	/experiments/Knapen_AOT/aot_oldvideos/S_yt-ePxv64kEqa0_177.mp4	0.0	251.427640914917	1.0102920532226562
50	193.76539826393127	movie	1		285	49.0	2.5	/experiments/Knapen_AOT/aot_oldvideos/S_yt-ePxv64kEqa0_177.mp4	0.0	252.43793296813965	2.4897379875183105
50	196.25513625144958	fix_post	2		12	49.0	2.5	/experiments/Knapen_AOT/aot_oldvideos/S_yt-ePxv64kEqa0_177.mp4	0.0	254.92767095565796	0.10045862197875977
51	196.35559487342834	fix_pre	0		120	50.0	2.5	/experiments/Knapen_AOT/aot_oldvideos/S_yt-Pd3_4Z2tbFU_47.mp4	0.0	255.02812957763672	1.0000615119934082
51	197.35565638542175	movie	1		291	50.0	2.5	/experiments/Knapen_AOT/aot_oldvideos/S_yt-Pd3_4Z2tbFU_47.mp4	0.0	256.0281910896301	2.499530553817749
51	199.8551869392395	fix_post	2		12	50.0	2.5	/experiments/Knapen_AOT/aot_oldvideos/S_yt-Pd3_4Z2tbFU_47.mp4	0.0	258.5277216434479	0.10004568099975586
52	199.95523262023926	fix_pre	0		120	51.0	2.5	/experiments/Knapen_AOT/aot_oldvideos/S_yt-A1XT1fT1c8w_24.mp4	0.0	258.62776732444763	1.0045318603515625
52	200.95976448059082	movie	1		284	51.0	2.5	/experiments/Knapen_AOT/aot_oldvideos/S_yt-A1XT1fT1c8w_24.mp4	0.0	259.6322991847992	2.495455026626587
52	203.4552195072174	fix_post	2		12	51.0	2.5	/experiments/Knapen_AOT/aot_oldvideos/S_yt-A1XT1fT1c8w_24.mp4	0.0	262.1277542114258	0.10002517700195312
53	203.55524468421936	fix_pre	0		120	52.0	2.5	blank	1.0	262.22777938842773	1.0000007152557373
53	204.5552453994751	movie	1		300	52.0	2.5	blank	1.0	263.2277801036835	2.5000364780426025
53	207.0552818775177	fix_post	2		12	52.0	2.5	blank	1.0	265.7278165817261	0.0999913215637207
54	207.15527319908142	fix_pre	0		120	53.0	2.5	/experiments/Knapen_AOT/aot_oldvideos/S_yt-cILZ_cB3_so_73.mp4	0.0	265.8278079032898	1.0059258937835693
54	208.161199092865	movie	1		291	53.0	2.5	/experiments/Knapen_AOT/aot_oldvideos/S_yt-cILZ_cB3_so_73.mp4	0.0	266.83373379707336	2.4941210746765137
54	210.6553201675415	fix_post	2		12	53.0	2.5	/experiments/Knapen_AOT/aot_oldvideos/S_yt-cILZ_cB3_so_73.mp4	0.0	269.3278548717499	0.09998917579650879
55	210.755309343338	fix_pre	0		120	54.0	2.5	/experiments/Knapen_AOT/aot_oldvideos/S_yt-gbDSSDcRlg4_31.mp4	0.0	269.4278440475464	1.0031545162200928
55	211.7584638595581	movie	1		292	54.0	2.5	/experiments/Knapen_AOT/aot_oldvideos/S_yt-gbDSSDcRlg4_31.mp4	0.0	270.4309985637665	2.4969003200531006
55	214.2553641796112	fix_post	2		12	54.0	2.5	/experiments/Knapen_AOT/aot_oldvideos/S_yt-gbDSSDcRlg4_31.mp4	0.0	272.9278988838196	0.10041952133178711
56	214.355783700943	fix_pre	0		120	55.0	2.5	/experiments/Knapen_AOT/aot_oldvideos/S_yt-MXCxHM_Ms8A_15.mp4	0.0	273.02831840515137	0.9999053478240967
56	215.3556890487671	movie	1		293	55.0	2.5	/experiments/Knapen_AOT/aot_oldvideos/S_yt-MXCxHM_Ms8A_15.mp4	0.0	274.02822375297546	2.4999473094940186
56	217.8556363582611	fix_post	2		12	55.0	2.5	/experiments/Knapen_AOT/aot_oldvideos/S_yt-MXCxHM_Ms8A_15.mp4	0.0	276.5281710624695	0.09978294372558594
57	217.9554193019867	fix_pre	0		120	56.0	2.5	/experiments/Knapen_AOT/aot_oldvideos/S_yt-pB-AcJ71tzA_20.mp4	0.0	276.62795400619507	1.0044846534729004
57	218.9599039554596	movie	1		290	56.0	2.5	/experiments/Knapen_AOT/aot_oldvideos/S_yt-pB-AcJ71tzA_20.mp4	0.0	277.63243865966797	2.4955413341522217
57	221.45544528961182	fix_post	2		12	56.0	2.5	/experiments/Knapen_AOT/aot_oldvideos/S_yt-pB-AcJ71tzA_20.mp4	0.0	280.1279799938202	0.10001325607299805
58	221.55545854568481	fix_pre	0		120	57.0	2.5	/experiments/Knapen_AOT/aot_oldvideos/S_yt-DO1vncSoiJk_58.mp4	0.0	280.2279932498932	1.0017483234405518
58	222.55720686912537	movie	1		290	57.0	2.5	/experiments/Knapen_AOT/aot_oldvideos/S_yt-DO1vncSoiJk_58.mp4	0.0	281.22974157333374	2.4983112812042236
58	225.0555181503296	fix_post	2		12	57.0	2.5	/experiments/Knapen_AOT/aot_oldvideos/S_yt-DO1vncSoiJk_58.mp4	0.0	283.72805285453796	0.09997200965881348
59	225.1554901599884	fix_pre	0		120	58.0	2.5	/experiments/Knapen_AOT/aot_oldvideos/S_yt-ChAhBD9LrsU_223.mp4	0.0	283.8280248641968	1.0000011920928955
59	226.1554913520813	movie	1		268	58.0	2.5	/experiments/Knapen_AOT/aot_oldvideos/S_yt-ChAhBD9LrsU_223.mp4	0.0	284.8280260562897	2.5000643730163574
59	228.65555572509766	fix_post	2		12	58.0	2.5	/experiments/Knapen_AOT/aot_oldvideos/S_yt-ChAhBD9LrsU_223.mp4	0.0	287.32809042930603	0.10009980201721191
60	228.75565552711487	fix_pre	0		120	59.0	2.5	/experiments/Knapen_AOT/aot_oldvideos/S_yt-P2RwcXMKIbQ_1.mp4	0.0	287.42819023132324	1.0029518604278564
60	229.75860738754272	movie	1		259	59.0	2.5	/experiments/Knapen_AOT/aot_oldvideos/S_yt-P2RwcXMKIbQ_1.mp4	0.0	288.4311420917511	2.4969935417175293
60	232.25560092926025	fix_post	2		12	59.0	2.5	/experiments/Knapen_AOT/aot_oldvideos/S_yt-P2RwcXMKIbQ_1.mp4	0.0	290.9281356334686	0.10026979446411133
61	232.35587072372437	fix_pre	0		120	60.0	2.5	/experiments/Knapen_AOT/aot_oldvideos/S_2E67nCgRCGk_75.mp4	0.0	291.02840542793274	0.999962329864502
61	233.35583305358887	movie	1		281	60.0	2.5	/experiments/Knapen_AOT/aot_oldvideos/S_2E67nCgRCGk_75.mp4	0.0	292.02836775779724	2.499951124191284
61	235.85578417778015	fix_post	2		12	60.0	2.5	/experiments/Knapen_AOT/aot_oldvideos/S_2E67nCgRCGk_75.mp4	0.0	294.5283188819885	0.09987092018127441
62	235.95565509796143	fix_pre	0		120	61.0	2.5	/experiments/Knapen_AOT/aot_oldvideos/S_yt-2U5u3lLJx5M_7.mp4	0.0	294.6281898021698	1.0043869018554688
62	236.9600419998169	movie	1		275	61.0	2.5	/experiments/Knapen_AOT/aot_oldvideos/S_yt-2U5u3lLJx5M_7.mp4	0.0	295.63257670402527	2.495689868927002
62	239.4557318687439	fix_post	2		12	61.0	2.5	/experiments/Knapen_AOT/aot_oldvideos/S_yt-2U5u3lLJx5M_7.mp4	0.0	298.12826657295227	0.09994721412658691
63	239.55567908287048	fix_pre	0		120	62.0	2.5	/experiments/Knapen_AOT/aot_oldvideos/S_yt-RL1chIcbTPQ_11.mp4	0.0	298.22821378707886	1.001619815826416
63	240.5572988986969	movie	1		279	62.0	2.5	/experiments/Knapen_AOT/aot_oldvideos/S_yt-RL1chIcbTPQ_11.mp4	0.0	299.2298336029053	2.4984467029571533
63	243.05574560165405	fix_post	2		12	62.0	2.5	/experiments/Knapen_AOT/aot_oldvideos/S_yt-RL1chIcbTPQ_11.mp4	0.0	301.7282803058624	0.09998202323913574
64	243.1557276248932	fix_pre	0		120	63.0	2.5	/experiments/Knapen_AOT/aot_oldvideos/S_yt-u0N1IsXxLM4_103.mp4	0.0	301.82826232910156	0.9999949932098389
64	244.15572261810303	movie	1		253	63.0	2.5	/experiments/Knapen_AOT/aot_oldvideos/S_yt-u0N1IsXxLM4_103.mp4	0.0	302.8282573223114	2.5000569820404053
64	246.65577960014343	fix_post	2		12	63.0	2.5	/experiments/Knapen_AOT/aot_oldvideos/S_yt-u0N1IsXxLM4_103.mp4	0.0	305.3283143043518	0.0999906063079834
65	246.75577020645142	fix_pre	0		120	64.0	2.5	/experiments/Knapen_AOT/aot_oldvideos/S_yt-VyVvEvP6MRM_124.mp4	0.0	305.4283049106598	1.008411169052124
65	247.76418137550354	movie	1		259	64.0	2.5	/experiments/Knapen_AOT/aot_oldvideos/S_yt-VyVvEvP6MRM_124.mp4	0.0	306.4367160797119	2.4916751384735107
65	250.25585651397705	fix_post	2		12	64.0	2.5	/experiments/Knapen_AOT/aot_oldvideos/S_yt-VyVvEvP6MRM_124.mp4	0.0	308.9283912181854	0.10011553764343262
66	250.35597205162048	fix_pre	0		120	65.0	2.5	/experiments/Knapen_AOT/aot_oldvideos/S_yt-GBqXIFjZf8w_28.mp4	0.0	309.02850675582886	1.000047206878662
66	251.35601925849915	movie	1		253	65.0	2.5	/experiments/Knapen_AOT/aot_oldvideos/S_yt-GBqXIFjZf8w_28.mp4	0.0	310.0285539627075	2.499889612197876
66	253.85590887069702	fix_post	2		12	65.0	2.5	/experiments/Knapen_AOT/aot_oldvideos/S_yt-GBqXIFjZf8w_28.mp4	0.0	312.5284435749054	0.09993815422058105
67	253.9558470249176	fix_pre	0		120	66.0	2.5	blank	1.0	312.628381729126	1.0000343322753906
67	254.955881357193	movie	1		300	66.0	2.5	blank	1.0	313.62841606140137	2.5000131130218506
67	257.45589447021484	fix_post	2		12	66.0	2.5	blank	1.0	316.1284291744232	0.09999346733093262
68	257.5558879375458	fix_pre	0		120	67.0	2.5	/experiments/Knapen_AOT/aot_oldvideos/S_yt-hjqjWlzPRjY_76.mp4	0.0	316.22842264175415	1.0015089511871338
68	258.5573968887329	movie	1		262	67.0	2.5	/experiments/Knapen_AOT/aot_oldvideos/S_yt-hjqjWlzPRjY_76.mp4	0.0	317.2299315929413	2.4985857009887695
68	261.0559825897217	fix_post	2		12	67.0	2.5	/experiments/Knapen_AOT/aot_oldvideos/S_yt-hjqjWlzPRjY_76.mp4	0.0	319.72851729393005	0.09997272491455078
69	261.15595531463623	fix_pre	0		120	68.0	2.5	/experiments/Knapen_AOT/aot_oldvideos/S_yt-bWXohhodbjg_86.mp4	0.0	319.8284900188446	1.0056195259094238
69	262.16157484054565	movie	1		274	68.0	2.5	/experiments/Knapen_AOT/aot_oldvideos/S_yt-bWXohhodbjg_86.mp4	0.0	320.834109544754	2.494410991668701
69	264.65598583221436	fix_post	2		12	68.0	2.5	/experiments/Knapen_AOT/aot_oldvideos/S_yt-bWXohhodbjg_86.mp4	0.0	323.32852053642273	0.1000518798828125
70	264.75603771209717	fix_pre	0		120	69.0	2.5	/experiments/Knapen_AOT/aot_oldvideos/S_CHWw361oMSQ_195.mp4	0.0	323.42857241630554	1.0082964897155762
70	265.76433420181274	movie	1		273	69.0	2.5	/experiments/Knapen_AOT/aot_oldvideos/S_CHWw361oMSQ_195.mp4	0.0	324.4368689060211	2.4917030334472656
70	268.25603723526	fix_post	2		12	69.0	2.5	/experiments/Knapen_AOT/aot_oldvideos/S_CHWw361oMSQ_195.mp4	0.0	326.9285719394684	0.10018086433410645
71	268.3562180995941	fix_pre	0		120	70.0	2.5	/experiments/Knapen_AOT/aot_oldvideos/S_yt-cWBQB8CxsVY_69.mp4	0.0	327.0287528038025	0.9999268054962158
71	269.35614490509033	movie	1		264	70.0	2.5	/experiments/Knapen_AOT/aot_oldvideos/S_yt-cWBQB8CxsVY_69.mp4	0.0	328.0286796092987	2.4999232292175293
71	271.85606813430786	fix_post	2		12	70.0	2.5	/experiments/Knapen_AOT/aot_oldvideos/S_yt-cWBQB8CxsVY_69.mp4	0.0	330.52860283851624	0.10004925727844238
72	271.9561173915863	fix_pre	0		120	71.0	2.5	/experiments/Knapen_AOT/aot_oldvideos/S_yt-g_RCws799LQ_52.mp4	0.0	330.6286520957947	1.0041635036468506
72	272.96028089523315	movie	1		263	71.0	2.5	/experiments/Knapen_AOT/aot_oldvideos/S_yt-g_RCws799LQ_52.mp4	0.0	331.6328155994415	2.4958322048187256
72	275.4561131000519	fix_post	2		12	71.0	2.5	/experiments/Knapen_AOT/aot_oldvideos/S_yt-g_RCws799LQ_52.mp4	0.0	334.12864780426025	0.10151410102844238
73	275.5576272010803	fix_pre	0		120	72.0	2.5	/experiments/Knapen_AOT/aot_oldvideos/S_ILSVRC2015_train_00611000.mp4	0.0	334.2301619052887	0.9999651908874512
73	276.5575923919678	movie	1		258	72.0	2.5	/experiments/Knapen_AOT/aot_oldvideos/S_ILSVRC2015_train_00611000.mp4	0.0	335.23012709617615	2.4985971450805664
73	279.05618953704834	fix_post	2		12	72.0	2.5	/experiments/Knapen_AOT/aot_oldvideos/S_ILSVRC2015_train_00611000.mp4	0.0	337.7287242412567	0.10001683235168457
74	279.1562063694	fix_pre	0		120	73.0	2.5	/experiments/Knapen_AOT/aot_oldvideos/S_yt-p-kbRhTdyiQ_31.mp4	0.0	337.8287410736084	1.0054843425750732
74	280.1616907119751	movie	1		257	73.0	2.5	/experiments/Knapen_AOT/aot_oldvideos/S_yt-p-kbRhTdyiQ_31.mp4	0.0	338.8342254161835	2.4945149421691895
74	282.6562056541443	fix_post	2		12	73.0	2.5	/experiments/Knapen_AOT/aot_oldvideos/S_yt-p-kbRhTdyiQ_31.mp4	0.0	341.32874035835266	0.10004472732543945
75	282.7562503814697	fix_pre	0		120	74.0	2.5	/experiments/Knapen_AOT/aot_oldvideos/S_yt-1VTxnf2hZ0w_675.mp4	0.0	341.4287850856781	1.0027124881744385
75	283.75896286964417	movie	1		260	74.0	2.5	/experiments/Knapen_AOT/aot_oldvideos/S_yt-1VTxnf2hZ0w_675.mp4	0.0	342.43149757385254	2.4972870349884033
75	286.25624990463257	fix_post	2		12	74.0	2.5	/experiments/Knapen_AOT/aot_oldvideos/S_yt-1VTxnf2hZ0w_675.mp4	0.0	344.92878460884094	0.10006475448608398
76	286.35631465911865	fix_pre	0		120	75.0	2.5	/experiments/Knapen_AOT/aot_oldvideos/S_ILSVRC2015_train_00707000.mp4	0.0	345.028849363327	0.9999449253082275
76	287.3562595844269	movie	1		255	75.0	2.5	/experiments/Knapen_AOT/aot_oldvideos/S_ILSVRC2015_train_00707000.mp4	0.0	346.02879428863525	2.5000314712524414
76	289.8562910556793	fix_post	2		12	75.0	2.5	/experiments/Knapen_AOT/aot_oldvideos/S_ILSVRC2015_train_00707000.mp4	0.0	348.5288257598877	0.09999561309814453
77	289.95628666877747	fix_pre	0		120	76.0	2.5	/experiments/Knapen_AOT/aot_oldvideos/S_yt-D9iwtEHx8M0_20.mp4	0.0	348.62882137298584	1.004124641418457
77	290.9604113101959	movie	1		272	76.0	2.5	/experiments/Knapen_AOT/aot_oldvideos/S_yt-D9iwtEHx8M0_20.mp4	0.0	349.6329460144043	2.4959235191345215
77	293.45633482933044	fix_post	2		12	76.0	2.5	/experiments/Knapen_AOT/aot_oldvideos/S_yt-D9iwtEHx8M0_20.mp4	0.0	352.1288695335388	0.1000051498413086
78	293.55633997917175	fix_pre	0		120	77.0	2.5	/experiments/Knapen_AOT/aot_oldvideos/S_yt-2wb0b0pdSxU_59.mp4	0.0	352.2288746833801	1.0013139247894287
78	294.5576539039612	movie	1		267	77.0	2.5	/experiments/Knapen_AOT/aot_oldvideos/S_yt-2wb0b0pdSxU_59.mp4	0.0	353.23018860816956	2.4987332820892334
78	297.0563871860504	fix_post	2		12	77.0	2.5	/experiments/Knapen_AOT/aot_oldvideos/S_yt-2wb0b0pdSxU_59.mp4	0.0	355.7289218902588	0.09998893737792969
79	297.15637612342834	fix_pre	0		120	78.0	2.5	/experiments/Knapen_AOT/aot_oldvideos/S_yt-NqZHX-eOVUA_35.mp4	0.0	355.8289108276367	1.0083820819854736
79	298.1647582054138	movie	1		260	78.0	2.5	/experiments/Knapen_AOT/aot_oldvideos/S_yt-NqZHX-eOVUA_35.mp4	0.0	356.8372929096222	2.4916746616363525
79	300.65643286705017	fix_post	2		12	78.0	2.5	/experiments/Knapen_AOT/aot_oldvideos/S_yt-NqZHX-eOVUA_35.mp4	0.0	359.32896757125854	0.10000395774841309
80	300.7564368247986	fix_pre	0		120	79.0	2.5	blank	1.0	359.42897152900696	1.000053882598877
80	301.75649070739746	movie	1		300	79.0	2.5	blank	1.0	360.42902541160583	2.5000298023223877
80	304.25652050971985	fix_post	2		12	79.0	2.5	blank	1.0	362.9290552139282	0.0999445915222168
81	304.35646510124207	fix_pre	0		120	80.0	2.5	/experiments/Knapen_AOT/aot_oldvideos/S_flickr-thelastdon-8662706978_3.mp4	0.0	363.02899980545044	1.008354663848877
81	305.36481976509094	movie	1		265	80.0	2.5	/experiments/Knapen_AOT/aot_oldvideos/S_flickr-thelastdon-8662706978_3.mp4	0.0	364.0373544692993	2.491682767868042
81	307.856502532959	fix_post	2		12	80.0	2.5	/experiments/Knapen_AOT/aot_oldvideos/S_flickr-thelastdon-8662706978_3.mp4	0.0	366.52903723716736	0.10004496574401855
82	307.956547498703	fix_pre	0		120	81.0	2.5	/experiments/Knapen_AOT/aot_oldvideos/S_yt-e9ttJw0BUuU_40.mp4	0.0	366.6290822029114	1.0039846897125244
82	308.9605321884155	movie	1		256	81.0	2.5	/experiments/Knapen_AOT/aot_oldvideos/S_yt-e9ttJw0BUuU_40.mp4	0.0	367.6330668926239	2.496021270751953
82	311.4565534591675	fix_post	2		12	81.0	2.5	/experiments/Knapen_AOT/aot_oldvideos/S_yt-e9ttJw0BUuU_40.mp4	0.0	370.12908816337585	0.10002946853637695
83	311.55658292770386	fix_pre	0		120	82.0	2.5	/experiments/Knapen_AOT/aot_oldvideos/S_yt-Z1ozMh4szTk_13.mp4	0.0	370.22911763191223	1.0012943744659424
83	312.5578773021698	movie	1		274	82.0	2.5	/experiments/Knapen_AOT/aot_oldvideos/S_yt-Z1ozMh4szTk_13.mp4	0.0	371.2304120063782	2.4987473487854004
83	315.0566246509552	fix_post	2		12	82.0	2.5	/experiments/Knapen_AOT/aot_oldvideos/S_yt-Z1ozMh4szTk_13.mp4	0.0	373.7291593551636	0.10001206398010254
84	315.1566367149353	fix_pre	0		120	83.0	2.5	/experiments/Knapen_AOT/aot_oldvideos/S_yt-ihCTIoE7qsk_730.mp4	0.0	373.8291714191437	1.005491018295288
84	316.1621277332306	movie	1		271	83.0	2.5	/experiments/Knapen_AOT/aot_oldvideos/S_yt-ihCTIoE7qsk_730.mp4	0.0	374.83466243743896	2.4945361614227295
84	318.6566638946533	fix_post	2		12	83.0	2.5	/experiments/Knapen_AOT/aot_oldvideos/S_yt-ihCTIoE7qsk_730.mp4	0.0	377.3291985988617	0.10000967979431152
85	318.75667357444763	fix_pre	0		120	84.0	2.5	blank	1.0	377.429208278656	0.9999706745147705
85	319.7566442489624	movie	1		300	84.0	2.5	blank	1.0	378.4291789531708	2.5000715255737305
85	322.25671577453613	fix_post	2		12	84.0	2.5	blank	1.0	380.9292504787445	0.1000218391418457
86	322.356737613678	fix_pre	0		120	85.0	2.5	/experiments/Knapen_AOT/aot_oldvideos/S_yt-PQYnj2BR17I_16.mp4	0.0	381.02927231788635	1.006676197052002
86	323.36341381073	movie	1		246	85.0	2.5	/experiments/Knapen_AOT/aot_oldvideos/S_yt-PQYnj2BR17I_16.mp4	0.0	382.03594851493835	2.493323802947998
86	325.856737613678	fix_post	2		12	85.0	2.5	/experiments/Knapen_AOT/aot_oldvideos/S_yt-PQYnj2BR17I_16.mp4	0.0	384.52927231788635	0.10004210472106934
87	325.95677971839905	fix_pre	0		120	86.0	2.5	/experiments/Knapen_AOT/aot_oldvideos/S_yt-be6x_357tjE_41.mp4	0.0	384.6293144226074	1.0038394927978516
87	326.9606192111969	movie	1		266	86.0	2.5	/experiments/Knapen_AOT/aot_oldvideos/S_yt-be6x_357tjE_41.mp4	0.0	385.6331539154053	2.49615478515625
87	329.45677399635315	fix_post	2		12	86.0	2.5	/experiments/Knapen_AOT/aot_oldvideos/S_yt-be6x_357tjE_41.mp4	0.0	388.1293087005615	0.10004115104675293
88	329.5568151473999	fix_pre	0		120	87.0	2.5	/experiments/Knapen_AOT/aot_oldvideos/S_ILSVRC2015_train_00416000.mp4	0.0	388.2293498516083	1.0011608600616455
88	330.55797600746155	movie	1		260	87.0	2.5	/experiments/Knapen_AOT/aot_oldvideos/S_ILSVRC2015_train_00416000.mp4	0.0	389.2305107116699	2.498863935470581
88	333.05683994293213	fix_post	2		12	87.0	2.5	/experiments/Knapen_AOT/aot_oldvideos/S_ILSVRC2015_train_00416000.mp4	0.0	391.7293746471405	0.10000872611999512
89	333.1568486690521	fix_pre	0		120	88.0	2.5	/experiments/Knapen_AOT/aot_oldvideos/S_yt-gbDSSDcRlg4_19.mp4	0.0	391.8293833732605	1.0052576065063477
89	334.1621062755585	movie	1		258	88.0	2.5	/experiments/Knapen_AOT/aot_oldvideos/S_yt-gbDSSDcRlg4_19.mp4	0.0	392.83464097976685	2.494853973388672
89	336.65696024894714	fix_post	2		12	88.0	2.5	/experiments/Knapen_AOT/aot_oldvideos/S_yt-gbDSSDcRlg4_19.mp4	0.0	395.3294949531555	0.09989261627197266
90	336.7568528652191	fix_pre	0		120	89.0	2.5	/experiments/Knapen_AOT/aot_oldvideos/S_yt-PDNWrJ2bZ6I_79.mp4	0.0	395.4293875694275	1.0084056854248047
90	337.7652585506439	movie	1		261	89.0	2.5	/experiments/Knapen_AOT/aot_oldvideos/S_yt-PDNWrJ2bZ6I_79.mp4	0.0	396.4377932548523	2.4916889667510986
90	340.256947517395	fix_post	2		12	89.0	2.5	/experiments/Knapen_AOT/aot_oldvideos/S_yt-PDNWrJ2bZ6I_79.mp4	0.0	398.9294822216034	0.09995722770690918
91	340.35690474510193	fix_pre	0		120	90.0	2.5	/experiments/Knapen_AOT/aot_oldvideos/S_yt-iCGU1R75BZo_52.mp4	0.0	399.0294394493103	1.000013828277588
91	341.3569185733795	movie	1		262	90.0	2.5	/experiments/Knapen_AOT/aot_oldvideos/S_yt-iCGU1R75BZo_52.mp4	0.0	400.0294532775879	2.5000264644622803
91	343.8569450378418	fix_post	2		12	90.0	2.5	/experiments/Knapen_AOT/aot_oldvideos/S_yt-iCGU1R75BZo_52.mp4	0.0	402.52947974205017	0.10001516342163086
92	343.9569602012634	fix_pre	0		120	91.0	2.5	blank	1.0	402.6294949054718	1.0000014305114746
92	344.9569616317749	movie	1		300	91.0	2.5	blank	1.0	403.6294963359833	2.500040054321289
92	347.4570016860962	fix_post	2		11	91.0	2.5	blank	1.0	406.12953639030457	0.10004854202270508
93	347.5570502281189	fix_pre	0		120	92.0	2.5	/experiments/Knapen_AOT/aot_oldvideos/S_ILSVRC2015_train_00768002.mp4	0.0	406.22958493232727	1.0082883834838867
93	348.5653386116028	movie	1		261	92.0	2.5	/experiments/Knapen_AOT/aot_oldvideos/S_ILSVRC2015_train_00768002.mp4	0.0	407.23787331581116	2.491704225540161
93	351.05704283714294	fix_post	2		12	92.0	2.5	/experiments/Knapen_AOT/aot_oldvideos/S_ILSVRC2015_train_00768002.mp4	0.0	409.7295775413513	0.10016560554504395
94	351.157208442688	fix_pre	0		120	93.0	2.5	/experiments/Knapen_AOT/aot_oldvideos/S_yt-cAFx29wS_xo_130.mp4	0.0	409.82974314689636	1.0081801414489746
94	352.16538858413696	movie	1		263	93.0	2.5	/experiments/Knapen_AOT/aot_oldvideos/S_yt-cAFx29wS_xo_130.mp4	0.0	410.83792328834534	2.4916934967041016
94	354.65708208084106	fix_post	2		12	93.0	2.5	/experiments/Knapen_AOT/aot_oldvideos/S_yt-cAFx29wS_xo_130.mp4	0.0	413.32961678504944	0.10001850128173828
95	354.7571005821228	fix_pre	0		120	94.0	2.5	/experiments/Knapen_AOT/aot_oldvideos/S_yt-58F4cMRhSw8_69.mp4	0.0	413.4296352863312	1.008375883102417
95	355.7654764652252	movie	1		267	94.0	2.5	/experiments/Knapen_AOT/aot_oldvideos/S_yt-58F4cMRhSw8_69.mp4	0.0	414.4380111694336	2.4916491508483887
95	358.2571256160736	fix_post	2		12	94.0	2.5	/experiments/Knapen_AOT/aot_oldvideos/S_yt-58F4cMRhSw8_69.mp4	0.0	416.929660320282	0.1000208854675293
96	358.35714650154114	fix_pre	0		120	95.0	2.5	/experiments/Knapen_AOT/aot_oldvideos/S_yt-5IEO9Gn5fZ4_59.mp4	0.0	417.0296812057495	1.0083363056182861
96	359.3654828071594	movie	1		258	95.0	2.5	/experiments/Knapen_AOT/aot_oldvideos/S_yt-5IEO9Gn5fZ4_59.mp4	0.0	418.0380175113678	2.4917216300964355
96	361.85720443725586	fix_post	2		12	95.0	2.5	/experiments/Knapen_AOT/aot_oldvideos/S_yt-5IEO9Gn5fZ4_59.mp4	0.0	420.52973914146423	0.09996938705444336
97	361.9571738243103	fix_pre	0		120	96.0	2.5	blank	1.0	420.6297085285187	1.0000627040863037
97	362.9572365283966	movie	1		300	96.0	2.5	blank	1.0	421.629771232605	2.4999802112579346
97	365.45721673965454	fix_post	2		11	96.0	2.5	blank	1.0	424.1297514438629	0.10094881057739258
98	365.55816555023193	fix_pre	0		120	97.0	2.5	/experiments/Knapen_AOT/aot_oldvideos/S_yt-gCKmHV5tdSk_59.mp4	0.0	424.2307002544403	1.0074069499969482
98	366.5655725002289	movie	1		261	97.0	2.5	/experiments/Knapen_AOT/aot_oldvideos/S_yt-gCKmHV5tdSk_59.mp4	0.0	425.23810720443726	2.4924850463867188
98	369.0580575466156	fix_post	2		12	97.0	2.5	/experiments/Knapen_AOT/aot_oldvideos/S_yt-gCKmHV5tdSk_59.mp4	0.0	427.730592250824	0.0992269515991211
99	369.1572844982147	fix_pre	0		120	98.0	2.5	/experiments/Knapen_AOT/aot_oldvideos/S_yt-16eN45838LU_255.mp4	0.0	427.8298192024231	1.0083622932434082
99	370.16564679145813	movie	1		258	98.0	2.5	/experiments/Knapen_AOT/aot_oldvideos/S_yt-16eN45838LU_255.mp4	0.0	428.8381814956665	2.491680860519409
99	372.65732765197754	fix_post	2		12	98.0	2.5	/experiments/Knapen_AOT/aot_oldvideos/S_yt-16eN45838LU_255.mp4	0.0	431.3298623561859	0.09996414184570312
100	372.75729179382324	fix_pre	0		120	99.0	2.5	/experiments/Knapen_AOT/aot_oldvideos/S_yt-NVYfkMFUxMk_466.mp4	0.0	431.4298264980316	1.0084004402160645
100	373.7656922340393	movie	1		261	99.0	2.5	/experiments/Knapen_AOT/aot_oldvideos/S_yt-NVYfkMFUxMk_466.mp4	0.0	432.4382269382477	2.491666078567505
100	376.2573583126068	fix_post	2		12	99.0	2.5	/experiments/Knapen_AOT/aot_oldvideos/S_yt-NVYfkMFUxMk_466.mp4	0.0	434.9298930168152	0.09999895095825195
101	376.35735726356506	fix_pre	0		120	100.0	2.5	/experiments/Knapen_AOT/aot_oldvideos/S_yt-iuqdW5OLSzc_6.mp4	0.0	435.02989196777344	1.0083627700805664
101	377.36572003364563	movie	1		255	100.0	2.5	/experiments/Knapen_AOT/aot_oldvideos/S_yt-iuqdW5OLSzc_6.mp4	0.0	436.038254737854	2.4916727542877197
101	379.85739278793335	fix_post	2		12	100.0	2.5	/experiments/Knapen_AOT/aot_oldvideos/S_yt-iuqdW5OLSzc_6.mp4	0.0	438.5299274921417	0.0999903678894043
102	379.95738315582275	fix_pre	0		120	101.0	2.5	/experiments/Knapen_AOT/aot_oldvideos/S_yt-T2CzKcU8pHo_17.mp4	0.0	438.6299178600311	1.0036966800689697
102	380.9610798358917	movie	1		260	101.0	2.5	/experiments/Knapen_AOT/aot_oldvideos/S_yt-T2CzKcU8pHo_17.mp4	0.0	439.6336145401001	2.496354341506958
102	383.4574341773987	fix_post	2		12	101.0	2.5	/experiments/Knapen_AOT/aot_oldvideos/S_yt-T2CzKcU8pHo_17.mp4	0.0	442.12996888160706	0.10000848770141602
103	383.5574426651001	fix_pre	0		120	102.0	2.5	/experiments/Knapen_AOT/aot_oldvideos/S_yt-z8fEOmzDlD4_21.mp4	0.0	442.2299773693085	1.0008792877197266
103	384.5583219528198	movie	1		254	102.0	2.5	/experiments/Knapen_AOT/aot_oldvideos/S_yt-z8fEOmzDlD4_21.mp4	0.0	443.2308566570282	2.499866485595703
103	387.0581884384155	fix_post	2		12	102.0	2.5	/experiments/Knapen_AOT/aot_oldvideos/S_yt-z8fEOmzDlD4_21.mp4	0.0	445.7307231426239	0.09929299354553223
104	387.15748143196106	fix_pre	0		120	103.0	2.5	/experiments/Knapen_AOT/aot_oldvideos/S_yt-T2Izta7lYZg_111.mp4	0.0	445.83001613616943	1.004981517791748
104	388.1624629497528	movie	1		265	103.0	2.5	/experiments/Knapen_AOT/aot_oldvideos/S_yt-T2Izta7lYZg_111.mp4	0.0	446.8349976539612	2.4950685501098633
104	390.65753149986267	fix_post	2		12	103.0	2.5	/experiments/Knapen_AOT/aot_oldvideos/S_yt-T2Izta7lYZg_111.mp4	0.0	449.33006620407104	0.09998798370361328
105	390.7575194835663	fix_pre	0		120	104.0	2.5	/experiments/Knapen_AOT/aot_oldvideos/S_yt-Y-8d31A9JXg_12.mp4	0.0	449.43005418777466	1.0021822452545166
105	391.7597017288208	movie	1		255	104.0	2.5	/experiments/Knapen_AOT/aot_oldvideos/S_yt-Y-8d31A9JXg_12.mp4	0.0	450.4322364330292	2.497879981994629
105	394.25758171081543	fix_post	2		12	104.0	2.5	/experiments/Knapen_AOT/aot_oldvideos/S_yt-Y-8d31A9JXg_12.mp4	0.0	452.9301164150238	0.10836100578308105
107	394.3659427165985	stim	0		1715					453.0384774208069	14.291819095611572
