trial_nr	onset	event_type	phase	response	nr_frames	movie_index	movie_duration	movie_file	blank	onset_abs	duration
0	0.15980315208435059	stim	0		1222					82.76353311538696	10.186944961547852
0	10.338125944137573	response	0	space						92.94185590744019	
1	10.346748113632202	fix_pre	0		121	0.0	2.5	/experiments/knapen_aot/videos/S_yt-loe3Rqs8TEM_46.mp4	0.0	92.95047807693481	1.0079028606414795
1	11.354650974273682	movie	1		225	0.0	2.5	/experiments/knapen_aot/videos/S_yt-loe3Rqs8TEM_46.mp4	0.0	93.9583809375763	2.500030040740967
1	13.854681015014648	fix_post	2		12	0.0	2.5	/experiments/knapen_aot/videos/S_yt-loe3Rqs8TEM_46.mp4	0.0	96.45841097831726	0.09992504119873047
2	13.954606056213379	fix_pre	0		120	1.0	2.5	/experiments/knapen_aot/videos/S_yt-Z_irN6cNiD4_148.mp4	0.0	96.55833601951599	1.4833800792694092
2	15.437986135482788	movie	1		225	1.0	2.5	/experiments/knapen_aot/videos/S_yt-Z_irN6cNiD4_148.mp4	0.0	98.0417160987854	2.0167548656463623
2	17.45474100112915	fix_post	2		12	1.0	2.5	/experiments/knapen_aot/videos/S_yt-Z_irN6cNiD4_148.mp4	0.0	100.05847096443176	0.10036492347717285
3	17.555105924606323	fix_pre	0		120	2.0	2.5	/experiments/knapen_aot/videos/S_yt-t9sowxGR_s4_1.mp4	0.0	100.15883588790894	0.9994931221008301
3	18.554599046707153	movie	1		228	2.0	2.5	/experiments/knapen_aot/videos/S_yt-t9sowxGR_s4_1.mp4	0.0	101.15832901000977	2.50007700920105
3	21.054676055908203	fix_post	2		12	2.0	2.5	/experiments/knapen_aot/videos/S_yt-t9sowxGR_s4_1.mp4	0.0	103.65840601921082	0.09993195533752441
4	21.154608011245728	fix_pre	0		120	3.0	2.5	/experiments/knapen_aot/videos/S_yt-6_SgWsPne7M_11.mp4	0.0	103.75833797454834	1.000075101852417
4	22.154683113098145	movie	1		289	3.0	2.5	/experiments/knapen_aot/videos/S_yt-6_SgWsPne7M_11.mp4	0.0	104.75841307640076	2.4999170303344727
4	24.654600143432617	fix_post	2		12	3.0	2.5	/experiments/knapen_aot/videos/S_yt-6_SgWsPne7M_11.mp4	0.0	107.25833010673523	0.10000896453857422
5	24.75460910797119	fix_pre	0		120	4.0	2.5	/experiments/knapen_aot/videos/S_yt-n12iRXTksXA_65.mp4	0.0	107.3583390712738	0.9999568462371826
5	25.754565954208374	movie	1		296	4.0	2.5	/experiments/knapen_aot/videos/S_yt-n12iRXTksXA_65.mp4	0.0	108.35829591751099	2.4999539852142334
5	28.254519939422607	fix_post	2		12	4.0	2.5	/experiments/knapen_aot/videos/S_yt-n12iRXTksXA_65.mp4	0.0	110.85824990272522	0.10008001327514648
6	28.354599952697754	fix_pre	0		120	5.0	2.5	blank	1.0	110.95832991600037	0.9999411106109619
6	29.354541063308716	movie	1		300	5.0	2.5	blank	1.0	111.95827102661133	2.5000219345092773
6	31.854562997817993	fix_post	2		12	5.0	2.5	blank	1.0	114.4582929611206	0.09998798370361328
7	31.954550981521606	fix_pre	0		120	6.0	2.5	/experiments/knapen_aot/videos/S_yt-S6N5FyjSFZE_4.mp4	0.0	114.55828094482422	1.0000171661376953
7	32.9545681476593	movie	1		300	6.0	2.5	/experiments/knapen_aot/videos/S_yt-S6N5FyjSFZE_4.mp4	0.0	115.55829811096191	2.4999399185180664
7	35.45450806617737	fix_post	2		12	6.0	2.5	/experiments/knapen_aot/videos/S_yt-S6N5FyjSFZE_4.mp4	0.0	118.05823802947998	0.10045385360717773
8	35.554961919784546	fix_pre	0		120	7.0	2.5	/experiments/knapen_aot/videos/S_yt-sZBe-xmTySc_8.mp4	0.0	118.15869188308716	0.9999020099639893
8	36.554863929748535	movie	1		293	7.0	2.5	/experiments/knapen_aot/videos/S_yt-sZBe-xmTySc_8.mp4	0.0	119.15859389305115	2.4996981620788574
8	39.05456209182739	fix_post	2		12	7.0	2.5	/experiments/knapen_aot/videos/S_yt-sZBe-xmTySc_8.mp4	0.0	121.65829205513	0.10000991821289062
9	39.15457201004028	fix_pre	0		120	8.0	2.5	/experiments/knapen_aot/videos/S_yt-qHUewJuLW4o_19.mp4	0.0	121.7583019733429	0.9999840259552002
9	40.15455603599548	movie	1		160	8.0	2.5	/experiments/knapen_aot/videos/S_yt-qHUewJuLW4o_19.mp4	0.0	122.7582859992981	2.966905117034912
9	43.121461153030396	fix_post	2		0	8.0	2.5	/experiments/knapen_aot/videos/S_yt-qHUewJuLW4o_19.mp4	0.0	125.72519111633301	0.0022897720336914062
10	43.12375092506409	fix_pre	0		76	9.0	2.5	/experiments/knapen_aot/videos/S_yt-YZO4_2yJLWE_1447.mp4	0.0	125.7274808883667	0.6312451362609863
10	43.75499606132507	movie	1		288	9.0	2.5	/experiments/knapen_aot/videos/S_yt-YZO4_2yJLWE_1447.mp4	0.0	126.35872602462769	2.4995439052581787
10	46.25453996658325	fix_post	2		12	9.0	2.5	/experiments/knapen_aot/videos/S_yt-YZO4_2yJLWE_1447.mp4	0.0	128.85826992988586	0.10006499290466309
11	46.354604959487915	fix_pre	0		120	10.0	2.5	blank	1.0	128.95833492279053	0.9999310970306396
11	47.354536056518555	movie	1		300	10.0	2.5	blank	1.0	129.95826601982117	2.4999969005584717
11	49.854532957077026	fix_post	2		12	10.0	2.5	blank	1.0	132.45826292037964	0.09997296333312988
12	49.954505920410156	fix_pre	0		120	11.0	2.5	/experiments/knapen_aot/videos/S_yt-GpVFUM8K0yE_68.mp4	0.0	132.55823588371277	1.0000672340393066
12	50.95457315444946	movie	1		232	11.0	2.5	/experiments/knapen_aot/videos/S_yt-GpVFUM8K0yE_68.mp4	0.0	133.55830311775208	2.4999608993530273
12	53.45453405380249	fix_post	2		12	11.0	2.5	/experiments/knapen_aot/videos/S_yt-GpVFUM8K0yE_68.mp4	0.0	136.0582640171051	0.10027599334716797
13	53.55481004714966	fix_pre	0		120	12.0	2.5	/experiments/knapen_aot/videos/S_yt-Hs5HF3mTQ7A_9.mp4	0.0	136.15854001045227	1.4860188961029053
13	55.04082894325256	movie	1		5	12.0	2.5	/experiments/knapen_aot/videos/S_yt-Hs5HF3mTQ7A_9.mp4	0.0	137.64455890655518	2.2502660751342773
13	57.29109501838684	fix_post	2		0	12.0	2.5	/experiments/knapen_aot/videos/S_yt-Hs5HF3mTQ7A_9.mp4	0.0	139.89482498168945	0.0022950172424316406
14	57.29339003562927	fix_pre	0		58	13.0	2.5	/experiments/knapen_aot/videos/S_yt-ZmoUDsP2y40_8.mp4	0.0	139.89711999893188	0.48645806312561035
