trial_nr	onset	event_type	phase	response	nr_frames	movie_index	movie_duration	movie_file	blank	onset_abs	duration
0	0.15714597702026367	stim	0		723					267.55415201187134	6.024527072906494
0	6.173475027084351	response	0	space						273.5704810619354	
1	6.181673049926758	fix_pre	0		121	0.0	2.5	/experiments/knapen_aot/videos/S_yt-loe3Rqs8TEM_46.mp4	0.0	273.57867908477783	1.0083138942718506
1	7.189986944198608	movie	1		237	0.0	2.5	/experiments/knapen_aot/videos/S_yt-loe3Rqs8TEM_46.mp4	0.0	274.5869929790497	2.545599937438965
1	9.735586881637573	fix_post	2		7	0.0	2.5	/experiments/knapen_aot/videos/S_yt-loe3Rqs8TEM_46.mp4	0.0	277.13259291648865	0.05446600914001465
2	9.790052890777588	fix_pre	0		120	1.0	2.5	/experiments/knapen_aot/videos/S_yt-Z_irN6cNiD4_148.mp4	0.0	277.18705892562866	1.474966049194336
2	11.265018939971924	movie	1		231	1.0	2.5	/experiments/knapen_aot/videos/S_yt-Z_irN6cNiD4_148.mp4	0.0	278.662024974823	2.025193929672241
2	13.290212869644165	fix_post	2		12	1.0	2.5	/experiments/knapen_aot/videos/S_yt-Z_irN6cNiD4_148.mp4	0.0	280.68721890449524	0.09994316101074219
3	13.390156030654907	fix_pre	0		120	2.0	2.5	/experiments/knapen_aot/videos/S_yt-t9sowxGR_s4_1.mp4	0.0	280.787162065506	0.9998869895935059
3	14.390043020248413	movie	1		220	2.0	2.5	/experiments/knapen_aot/videos/S_yt-t9sowxGR_s4_1.mp4	0.0	281.7870490550995	2.499943971633911
3	16.889986991882324	fix_post	2		12	2.0	2.5	/experiments/knapen_aot/videos/S_yt-t9sowxGR_s4_1.mp4	0.0	284.2869930267334	0.10002994537353516
4	16.99001693725586	fix_pre	0		120	3.0	2.5	/experiments/knapen_aot/videos/S_yt-6_SgWsPne7M_11.mp4	0.0	284.38702297210693	1.000049114227295
4	17.990066051483154	movie	1		164	3.0	2.5	/experiments/knapen_aot/videos/S_yt-6_SgWsPne7M_11.mp4	0.0	285.38707208633423	2.4998998641967773
4	20.48996591567993	fix_post	2		12	3.0	2.5	/experiments/knapen_aot/videos/S_yt-6_SgWsPne7M_11.mp4	0.0	287.886971950531	0.10009407997131348
5	20.590059995651245	fix_pre	0		120	4.0	2.5	/experiments/knapen_aot/videos/S_yt-n12iRXTksXA_65.mp4	0.0	287.9870660305023	1.0003080368041992
5	21.590368032455444	movie	1		225	4.0	2.5	/experiments/knapen_aot/videos/S_yt-n12iRXTksXA_65.mp4	0.0	288.9873740673065	2.4995319843292236
5	24.089900016784668	fix_post	2		12	4.0	2.5	/experiments/knapen_aot/videos/S_yt-n12iRXTksXA_65.mp4	0.0	291.48690605163574	0.10006999969482422
6	24.189970016479492	fix_pre	0		120	5.0	2.5	blank	1.0	291.58697605133057	0.9999408721923828
6	25.189910888671875	movie	1		300	5.0	2.5	blank	1.0	292.58691692352295	2.5001370906829834
6	27.69004797935486	fix_post	2		12	5.0	2.5	blank	1.0	295.08705401420593	0.09993195533752441
7	27.789979934692383	fix_pre	0		120	6.0	2.5	/experiments/knapen_aot/videos/S_yt-S6N5FyjSFZE_4.mp4	0.0	295.18698596954346	0.9999449253082275
7	28.78992486000061	movie	1		291	6.0	2.5	/experiments/knapen_aot/videos/S_yt-S6N5FyjSFZE_4.mp4	0.0	296.1869308948517	2.4999520778656006
7	31.28987693786621	fix_post	2		12	6.0	2.5	/experiments/knapen_aot/videos/S_yt-S6N5FyjSFZE_4.mp4	0.0	298.6868829727173	0.100067138671875
8	31.389944076538086	fix_pre	0		120	7.0	2.5	/experiments/knapen_aot/videos/S_yt-sZBe-xmTySc_8.mp4	0.0	298.78695011138916	1.4999468326568604
8	32.889890909194946	movie	1		225	7.0	2.5	/experiments/knapen_aot/videos/S_yt-sZBe-xmTySc_8.mp4	0.0	300.286896944046	2.0000720024108887
8	34.889962911605835	fix_post	2		12	7.0	2.5	/experiments/knapen_aot/videos/S_yt-sZBe-xmTySc_8.mp4	0.0	302.2869689464569	0.1000361442565918
9	34.98999905586243	fix_pre	0		120	8.0	2.5	/experiments/knapen_aot/videos/S_yt-qHUewJuLW4o_19.mp4	0.0	302.3870050907135	0.9999289512634277
9	35.989928007125854	movie	1		223	8.0	2.5	/experiments/knapen_aot/videos/S_yt-qHUewJuLW4o_19.mp4	0.0	303.38693404197693	2.499980926513672
9	38.489908933639526	fix_post	2		12	8.0	2.5	/experiments/knapen_aot/videos/S_yt-qHUewJuLW4o_19.mp4	0.0	305.8869149684906	0.09998893737792969
10	38.589897871017456	fix_pre	0		120	9.0	2.5	/experiments/knapen_aot/videos/S_yt-YZO4_2yJLWE_1447.mp4	0.0	305.98690390586853	1.4833722114562988
10	40.073270082473755	movie	1		228	9.0	2.5	/experiments/knapen_aot/videos/S_yt-YZO4_2yJLWE_1447.mp4	0.0	307.47027611732483	2.0167078971862793
10	42.089977979660034	fix_post	2		12	9.0	2.5	/experiments/knapen_aot/videos/S_yt-YZO4_2yJLWE_1447.mp4	0.0	309.4869840145111	0.09995198249816895
11	42.1899299621582	fix_pre	0		120	10.0	2.5	blank	1.0	309.5869359970093	0.9999899864196777
11	43.18991994857788	movie	1		300	10.0	2.5	blank	1.0	310.58692598342896	2.49995493888855
11	45.68987488746643	fix_post	2		12	10.0	2.5	blank	1.0	313.0868809223175	0.10003805160522461
12	45.789912939071655	fix_pre	0		120	11.0	2.5	/experiments/knapen_aot/videos/S_yt-GpVFUM8K0yE_68.mp4	0.0	313.18691897392273	0.9999380111694336
12	46.78985095024109	movie	1		296	11.0	2.5	/experiments/knapen_aot/videos/S_yt-GpVFUM8K0yE_68.mp4	0.0	314.18685698509216	2.5000829696655273
12	49.289933919906616	fix_post	2		12	11.0	2.5	/experiments/knapen_aot/videos/S_yt-GpVFUM8K0yE_68.mp4	0.0	316.6869399547577	0.09992814064025879
13	49.389862060546875	fix_pre	0		120	12.0	2.5	/experiments/knapen_aot/videos/S_yt-Hs5HF3mTQ7A_9.mp4	0.0	316.78686809539795	1.0000510215759277
13	50.3899130821228	movie	1		300	12.0	2.5	/experiments/knapen_aot/videos/S_yt-Hs5HF3mTQ7A_9.mp4	0.0	317.7869191169739	2.499933958053589
13	52.88984704017639	fix_post	2		12	12.0	2.5	/experiments/knapen_aot/videos/S_yt-Hs5HF3mTQ7A_9.mp4	0.0	320.28685307502747	0.10014700889587402
14	52.989994049072266	fix_pre	0		120	13.0	2.5	/experiments/knapen_aot/videos/S_yt-ZmoUDsP2y40_8.mp4	0.0	320.38700008392334	0.9998598098754883
14	53.989853858947754	movie	1		295	13.0	2.5	/experiments/knapen_aot/videos/S_yt-ZmoUDsP2y40_8.mp4	0.0	321.3868598937988	2.5002410411834717
14	56.490094900131226	fix_post	2		12	13.0	2.5	/experiments/knapen_aot/videos/S_yt-ZmoUDsP2y40_8.mp4	0.0	323.8871009349823	0.09978413581848145
15	56.58987903594971	fix_pre	0		120	14.0	2.5	blank	1.0	323.9868850708008	1.0002150535583496
15	57.59009408950806	movie	1		300	14.0	2.5	blank	1.0	324.98710012435913	2.4997987747192383
15	60.089892864227295	fix_post	2		12	14.0	2.5	blank	1.0	327.48689889907837	0.10003900527954102
16	60.189931869506836	fix_pre	0		120	15.0	2.5	blank	1.0	327.5869379043579	0.9999880790710449
16	61.18991994857788	movie	1		300	15.0	2.5	blank	1.0	328.58692598342896	2.499943971633911
16	63.68986392021179	fix_post	2		12	15.0	2.5	blank	1.0	331.08686995506287	0.10000014305114746
17	63.78986406326294	fix_pre	0		120	16.0	2.5	/experiments/knapen_aot/videos/S_yt-H2y1th4WaWU_51.mp4	0.0	331.186870098114	0.9999549388885498
17	64.78981900215149	movie	1		84	16.0	2.5	/experiments/knapen_aot/videos/S_yt-H2y1th4WaWU_51.mp4	0.0	332.18682503700256	2.8274638652801514
17	67.61728286743164	fix_post	2		0	16.0	2.5	/experiments/knapen_aot/videos/S_yt-H2y1th4WaWU_51.mp4	0.0	335.0142889022827	0.002183198928833008
18	67.61946606636047	fix_pre	0		93	17.0	2.5	/experiments/knapen_aot/videos/S_production_ID_4820331.mp4	0.0	335.01647210121155	1.2623209953308105
18	68.88178706169128	movie	1		4	17.0	2.5	/experiments/knapen_aot/videos/S_production_ID_4820331.mp4	0.0	336.27879309654236	2.027209997177124
18	70.90899705886841	fix_post	2		10	17.0	2.5	/experiments/knapen_aot/videos/S_production_ID_4820331.mp4	0.0	338.3060030937195	0.08074593544006348
19	70.98974299430847	fix_pre	0		120	18.0	2.5	blank	1.0	338.38674902915955	1.0001308917999268
19	71.9898738861084	movie	1		300	18.0	2.5	blank	1.0	339.3868799209595	2.499875068664551
19	74.48974895477295	fix_post	2		12	18.0	2.5	blank	1.0	341.886754989624	0.10006594657897949
20	74.58981490135193	fix_pre	0		120	19.0	2.5	/experiments/knapen_aot/videos/S_yt-fAWPQRcrXl0_38.mp4	0.0	341.986820936203	1.4785611629486084
20	76.06837606430054	movie	1		5	19.0	2.5	/experiments/knapen_aot/videos/S_yt-fAWPQRcrXl0_38.mp4	0.0	343.4653820991516	2.2796947956085205
20	78.34807085990906	fix_post	2		0	19.0	2.5	/experiments/knapen_aot/videos/S_yt-fAWPQRcrXl0_38.mp4	0.0	345.74507689476013	0.0033261775970458984
21	78.3513970375061	fix_pre	0		101	20.0	2.5	blank	1.0	345.7484030723572	0.838641881942749
21	79.19003891944885	movie	1		300	20.0	2.5	blank	1.0	346.5870449542999	2.499804973602295
21	81.68984389305115	fix_post	2		12	20.0	2.5	blank	1.0	349.0868499279022	0.09984803199768066
22	81.78969192504883	fix_pre	0		120	21.0	2.5	/experiments/knapen_aot/videos/S_yt-A-RhzHTz38g_21.mp4	0.0	349.1866979598999	1.4800419807434082
22	83.26973390579224	movie	1		5	21.0	2.5	/experiments/knapen_aot/videos/S_yt-A-RhzHTz38g_21.mp4	0.0	350.6667399406433	2.237014055252075
22	85.50674796104431	fix_post	2		0	21.0	2.5	/experiments/knapen_aot/videos/S_yt-A-RhzHTz38g_21.mp4	0.0	352.9037539958954	0.0033330917358398438
23	85.51008105278015	fix_pre	0		105	22.0	2.5	blank	1.0	352.9070870876312	0.8796329498291016
23	86.38971400260925	movie	1		300	22.0	2.5	blank	1.0	353.7867200374603	2.4999940395355225
23	88.88970804214478	fix_post	2		12	22.0	2.5	blank	1.0	356.28671407699585	0.10004496574401855
24	88.9897530078888	fix_pre	0		120	23.0	2.5	/experiments/knapen_aot/videos/S_yt-oypn4VCTu6U_279.mp4	0.0	356.38675904273987	1.4750049114227295
24	90.46475791931152	movie	1		88	23.0	2.5	/experiments/knapen_aot/videos/S_yt-oypn4VCTu6U_279.mp4	0.0	357.8617639541626	2.0250959396362305
24	92.48985385894775	fix_post	2		12	23.0	2.5	/experiments/knapen_aot/videos/S_yt-oypn4VCTu6U_279.mp4	0.0	359.8868598937988	0.10028815269470215
25	92.59014201164246	fix_pre	0		120	24.0	2.5	/experiments/knapen_aot/videos/S_ILSVRC2015_train_00661004.mp4	0.0	359.98714804649353	1.4829108715057373
25	94.0730528831482	movie	1		5	24.0	2.5	/experiments/knapen_aot/videos/S_ILSVRC2015_train_00661004.mp4	0.0	361.47005891799927	2.400395154953003
25	96.4734480381012	fix_post	2		0	24.0	2.5	/experiments/knapen_aot/videos/S_ILSVRC2015_train_00661004.mp4	0.0	363.87045407295227	0.0024018287658691406
26	96.47584986686707	fix_pre	0		86	25.0	2.5	/experiments/knapen_aot/videos/S_yt-xUPucH7kNAs_178.mp4	0.0	363.87285590171814	1.1975460052490234
26	96.49245095252991	response	0	escape		25.0	2.5	/experiments/knapen_aot/videos/S_yt-xUPucH7kNAs_178.mp4	0.0	363.889456987381	
26	97.67339587211609	movie	1		5	25.0	2.5	/experiments/knapen_aot/videos/S_yt-xUPucH7kNAs_178.mp4	0.0	365.07040190696716	2.2916531562805176
26	98.22925305366516	response	1	escape		25.0	2.5	/experiments/knapen_aot/videos/S_yt-xUPucH7kNAs_178.mp4	0.0	365.62625908851624	
26	99.36819791793823	response	1	return		25.0	2.5	/experiments/knapen_aot/videos/S_yt-xUPucH7kNAs_178.mp4	0.0	366.7652039527893	
26	99.9650490283966	fix_post	2		0	25.0	2.5	/experiments/knapen_aot/videos/S_yt-xUPucH7kNAs_178.mp4	0.0	367.3620550632477	0.002315998077392578
27	99.967365026474	fix_pre	0		62	26.0	2.5	blank	1.0	367.3643710613251	0.5143370628356934
