trial_nr	onset	event_type	phase	response	nr_frames	movie_index	movie_duration	movie_file	blank	onset_abs	duration
0	0.15637755393981934	stim	0		269					228.24919939041138	2.24163556098938
0	2.3898861408233643	response	0	space						230.48270797729492	
1	2.398013114929199	fix_pre	0		121	0.0	2.5	/experiments/Knapen_AOT/aot_oldvideos/S_yt-loe3Rqs8TEM_46.mp4	0.0	230.49083495140076	1.0186703205108643
1	3.4166834354400635	movie	1		284	0.0	2.5	/experiments/Knapen_AOT/aot_oldvideos/S_yt-loe3Rqs8TEM_46.mp4	0.0	231.50950527191162	2.489719867706299
1	5.906403303146362	fix_post	2		12	0.0	2.5	/experiments/Knapen_AOT/aot_oldvideos/S_yt-loe3Rqs8TEM_46.mp4	0.0	233.99922513961792	0.10001564025878906
2	6.006418943405151	fix_pre	0		120	1.0	2.5	/experiments/Knapen_AOT/aot_oldvideos/S_yt-Z_irN6cNiD4_148.mp4	0.0	234.0992407798767	1.0006074905395508
2	7.007026433944702	movie	1		288	1.0	2.5	/experiments/Knapen_AOT/aot_oldvideos/S_yt-Z_irN6cNiD4_148.mp4	0.0	235.09984827041626	2.499452829360962
2	9.506479263305664	fix_post	2		12	1.0	2.5	/experiments/Knapen_AOT/aot_oldvideos/S_yt-Z_irN6cNiD4_148.mp4	0.0	237.59930109977722	0.10002017021179199
3	9.606499433517456	fix_pre	0		120	2.0	2.5	/experiments/Knapen_AOT/aot_oldvideos/S_yt-t9sowxGR_s4_1.mp4	0.0	237.699321269989	1.004692554473877
3	10.611191987991333	movie	1		291	2.0	2.5	/experiments/Knapen_AOT/aot_oldvideos/S_yt-t9sowxGR_s4_1.mp4	0.0	238.7040138244629	2.4953620433807373
3	13.10655403137207	fix_post	2		12	2.0	2.5	/experiments/Knapen_AOT/aot_oldvideos/S_yt-t9sowxGR_s4_1.mp4	0.0	241.19937586784363	0.09997200965881348
4	13.206526041030884	fix_pre	0		120	3.0	2.5	/experiments/Knapen_AOT/aot_oldvideos/S_yt-6_SgWsPne7M_11.mp4	0.0	241.29934787750244	1.0019125938415527
4	14.208438634872437	movie	1		289	3.0	2.5	/experiments/Knapen_AOT/aot_oldvideos/S_yt-6_SgWsPne7M_11.mp4	0.0	242.301260471344	2.4981164932250977
4	16.706555128097534	fix_post	2		12	3.0	2.5	/experiments/Knapen_AOT/aot_oldvideos/S_yt-6_SgWsPne7M_11.mp4	0.0	244.7993769645691	0.10000133514404297
5	16.806556463241577	fix_pre	0		120	4.0	2.5	/experiments/Knapen_AOT/aot_oldvideos/S_yt-n12iRXTksXA_65.mp4	0.0	244.89937829971313	0.9999771118164062
5	17.806533575057983	movie	1		295	4.0	2.5	/experiments/Knapen_AOT/aot_oldvideos/S_yt-n12iRXTksXA_65.mp4	0.0	245.89935541152954	2.500128984451294
5	20.306662559509277	fix_post	2		12	4.0	2.5	/experiments/Knapen_AOT/aot_oldvideos/S_yt-n12iRXTksXA_65.mp4	0.0	248.39948439598083	0.09997415542602539
6	20.406636714935303	fix_pre	0		120	5.0	2.5	blank	1.0	248.49945855140686	0.9999713897705078
6	21.40660810470581	movie	1		300	5.0	2.5	blank	1.0	249.49942994117737	2.5000174045562744
6	23.906625509262085	fix_post	2		12	5.0	2.5	blank	1.0	251.99944734573364	0.1005704402923584
7	24.007195949554443	fix_pre	0		120	6.0	2.5	/experiments/Knapen_AOT/aot_oldvideos/S_yt-S6N5FyjSFZE_4.mp4	0.0	252.100017786026	0.9999091625213623
7	25.007105112075806	movie	1		294	6.0	2.5	/experiments/Knapen_AOT/aot_oldvideos/S_yt-S6N5FyjSFZE_4.mp4	0.0	253.09992694854736	2.4996094703674316
7	27.506714582443237	fix_post	2		12	6.0	2.5	/experiments/Knapen_AOT/aot_oldvideos/S_yt-S6N5FyjSFZE_4.mp4	0.0	255.5995364189148	0.09996414184570312
8	27.60667872428894	fix_pre	0		120	7.0	2.5	/experiments/Knapen_AOT/aot_oldvideos/S_yt-sZBe-xmTySc_8.mp4	0.0	255.6995005607605	1.0083632469177246
8	28.615041971206665	movie	1		291	7.0	2.5	/experiments/Knapen_AOT/aot_oldvideos/S_yt-sZBe-xmTySc_8.mp4	0.0	256.7078638076782	2.4916863441467285
8	31.106728315353394	fix_post	2		12	7.0	2.5	/experiments/Knapen_AOT/aot_oldvideos/S_yt-sZBe-xmTySc_8.mp4	0.0	259.19955015182495	0.10000920295715332
9	31.206737518310547	fix_pre	0		120	8.0	2.5	/experiments/Knapen_AOT/aot_oldvideos/S_yt-qHUewJuLW4o_19.mp4	0.0	259.2995593547821	1.0017969608306885
9	32.208534479141235	movie	1		291	8.0	2.5	/experiments/Knapen_AOT/aot_oldvideos/S_yt-qHUewJuLW4o_19.mp4	0.0	260.3013563156128	2.4982378482818604
9	34.706772327423096	fix_post	2		12	8.0	2.5	/experiments/Knapen_AOT/aot_oldvideos/S_yt-qHUewJuLW4o_19.mp4	0.0	262.79959416389465	0.09997415542602539
10	34.80674648284912	fix_pre	0		120	9.0	2.5	/experiments/Knapen_AOT/aot_oldvideos/S_yt-YZO4_2yJLWE_1447.mp4	0.0	262.8995683193207	1.0060410499572754
10	35.8127875328064	movie	1		287	9.0	2.5	/experiments/Knapen_AOT/aot_oldvideos/S_yt-YZO4_2yJLWE_1447.mp4	0.0	263.90560936927795	2.485964298248291
10	38.29875183105469	fix_post	2		13	9.0	2.5	/experiments/Knapen_AOT/aot_oldvideos/S_yt-YZO4_2yJLWE_1447.mp4	0.0	266.39157366752625	0.10805916786193848
11	38.406810998916626	fix_pre	0		120	10.0	2.5	blank	1.0	266.4996328353882	1.0000171661376953
11	39.40682816505432	movie	1		300	10.0	2.5	blank	1.0	267.4996500015259	2.5000345706939697
11	41.90686273574829	fix_post	2		12	10.0	2.5	blank	1.0	269.99968457221985	0.1004493236541748
12	42.007312059402466	fix_pre	0		120	11.0	2.5	/experiments/Knapen_AOT/aot_oldvideos/S_yt-GpVFUM8K0yE_68.mp4	0.0	270.100133895874	0.9999487400054932
12	43.00726079940796	movie	1		297	11.0	2.5	/experiments/Knapen_AOT/aot_oldvideos/S_yt-GpVFUM8K0yE_68.mp4	0.0	271.1000826358795	2.499732494354248
12	45.50699329376221	fix_post	2		12	11.0	2.5	/experiments/Knapen_AOT/aot_oldvideos/S_yt-GpVFUM8K0yE_68.mp4	0.0	273.59981513023376	0.09992599487304688
13	45.606919288635254	fix_pre	0		120	12.0	2.5	/experiments/Knapen_AOT/aot_oldvideos/S_yt-Hs5HF3mTQ7A_9.mp4	0.0	273.6997411251068	1.0045084953308105
13	46.611427783966064	movie	1		291	12.0	2.5	/experiments/Knapen_AOT/aot_oldvideos/S_yt-Hs5HF3mTQ7A_9.mp4	0.0	274.7042496204376	2.495518684387207
13	49.10694646835327	fix_post	2		12	12.0	2.5	/experiments/Knapen_AOT/aot_oldvideos/S_yt-Hs5HF3mTQ7A_9.mp4	0.0	277.19976830482483	0.10003399848937988
14	49.20698046684265	fix_pre	0		120	13.0	2.5	/experiments/Knapen_AOT/aot_oldvideos/S_yt-ZmoUDsP2y40_8.mp4	0.0	277.2998023033142	1.0017168521881104
14	50.20869731903076	movie	1		295	13.0	2.5	/experiments/Knapen_AOT/aot_oldvideos/S_yt-ZmoUDsP2y40_8.mp4	0.0	278.3015191555023	2.498307228088379
14	52.70700454711914	fix_post	2		12	13.0	2.5	/experiments/Knapen_AOT/aot_oldvideos/S_yt-ZmoUDsP2y40_8.mp4	0.0	280.7998263835907	0.09998631477355957
15	52.8069908618927	fix_pre	0		120	14.0	2.5	blank	1.0	280.89981269836426	1.0000293254852295
15	53.80702018737793	movie	1		300	14.0	2.5	blank	1.0	281.8998420238495	2.500030994415283
15	56.30705118179321	fix_post	2		12	14.0	2.5	blank	1.0	284.39987301826477	0.09999871253967285
16	56.407049894332886	fix_pre	0		120	15.0	2.5	blank	1.0	284.49987173080444	1.0000605583190918
16	57.40711045265198	movie	1		300	15.0	2.5	blank	1.0	285.49993228912354	2.500027656555176
16	59.90713810920715	fix_post	2		12	15.0	2.5	blank	1.0	287.9999599456787	0.10022950172424316
17	60.0073676109314	fix_pre	0		120	16.0	2.5	/experiments/Knapen_AOT/aot_oldvideos/S_yt-H2y1th4WaWU_51.mp4	0.0	288.10018944740295	1.000037670135498
17	61.007405281066895	movie	1		290	16.0	2.5	/experiments/Knapen_AOT/aot_oldvideos/S_yt-H2y1th4WaWU_51.mp4	0.0	289.10022711753845	2.4997730255126953
17	63.50717830657959	fix_post	2		12	16.0	2.5	/experiments/Knapen_AOT/aot_oldvideos/S_yt-H2y1th4WaWU_51.mp4	0.0	291.60000014305115	0.0999443531036377
18	63.60712265968323	fix_pre	0		120	17.0	2.5	/experiments/Knapen_AOT/aot_oldvideos/S_production_ID_4820331.mp4	0.0	291.6999444961548	1.0114479064941406
18	64.61857056617737	movie	1		159	17.0	2.5	/experiments/Knapen_AOT/aot_oldvideos/S_production_ID_4820331.mp4	0.0	292.7113924026489	2.488668203353882
18	67.10723876953125	fix_post	2		12	17.0	2.5	/experiments/Knapen_AOT/aot_oldvideos/S_production_ID_4820331.mp4	0.0	295.2000606060028	0.09999418258666992
19	67.20723295211792	fix_pre	0		120	18.0	2.5	blank	1.0	295.3000547885895	0.999948263168335
19	68.20718121528625	movie	1		300	18.0	2.5	blank	1.0	296.3000030517578	2.5000360012054443
19	70.7072172164917	fix_post	2		12	18.0	2.5	blank	1.0	298.80003905296326	0.10001182556152344
20	70.80722904205322	fix_pre	0		120	19.0	2.5	/experiments/Knapen_AOT/aot_oldvideos/S_yt-fAWPQRcrXl0_38.mp4	0.0	298.9000508785248	1.0057570934295654
20	71.81298613548279	movie	1		293	19.0	2.5	/experiments/Knapen_AOT/aot_oldvideos/S_yt-fAWPQRcrXl0_38.mp4	0.0	299.90580797195435	2.4860305786132812
20	74.29901671409607	fix_post	2		13	19.0	2.5	/experiments/Knapen_AOT/aot_oldvideos/S_yt-fAWPQRcrXl0_38.mp4	0.0	302.3918385505676	0.10838007926940918
21	74.40739679336548	fix_pre	0		120	20.0	2.5	blank	1.0	302.50021862983704	0.9998912811279297
21	75.40728807449341	movie	1		300	20.0	2.5	blank	1.0	303.50010991096497	2.500023126602173
21	77.90731120109558	fix_post	2		12	20.0	2.5	blank	1.0	306.00013303756714	0.10016751289367676
22	78.00747871398926	fix_pre	0		120	21.0	2.5	/experiments/Knapen_AOT/aot_oldvideos/S_yt-A-RhzHTz38g_21.mp4	0.0	306.1003005504608	1.0000813007354736
22	79.00756001472473	movie	1		287	21.0	2.5	/experiments/Knapen_AOT/aot_oldvideos/S_yt-A-RhzHTz38g_21.mp4	0.0	307.1003818511963	2.492936372756958
22	81.50049638748169	fix_post	2		13	21.0	2.5	/experiments/Knapen_AOT/aot_oldvideos/S_yt-A-RhzHTz38g_21.mp4	0.0	309.59331822395325	0.1068727970123291
23	81.60736918449402	fix_pre	0		120	22.0	2.5	blank	1.0	309.7001910209656	1.000049352645874
23	82.60741853713989	movie	1		300	22.0	2.5	blank	1.0	310.70024037361145	2.499974250793457
23	85.10739278793335	fix_post	2		12	22.0	2.5	blank	1.0	313.2002146244049	0.10001611709594727
24	85.2074089050293	fix_pre	0		120	23.0	2.5	/experiments/Knapen_AOT/aot_oldvideos/S_yt-oypn4VCTu6U_279.mp4	0.0	313.30023074150085	1.0015580654144287
24	86.20896697044373	movie	1		289	23.0	2.5	/experiments/Knapen_AOT/aot_oldvideos/S_yt-oypn4VCTu6U_279.mp4	0.0	314.3017888069153	2.498471736907959
24	88.70743870735168	fix_post	2		12	23.0	2.5	/experiments/Knapen_AOT/aot_oldvideos/S_yt-oypn4VCTu6U_279.mp4	0.0	316.80026054382324	0.1000373363494873
25	88.80747604370117	fix_pre	0		120	24.0	2.5	/experiments/Knapen_AOT/aot_oldvideos/S_ILSVRC2015_train_00661004.mp4	0.0	316.90029788017273	1.008371353149414
25	89.81584739685059	movie	1		288	24.0	2.5	/experiments/Knapen_AOT/aot_oldvideos/S_ILSVRC2015_train_00661004.mp4	0.0	317.90866923332214	2.483349323272705
25	92.29919672012329	fix_post	2		13	24.0	2.5	/experiments/Knapen_AOT/aot_oldvideos/S_ILSVRC2015_train_00661004.mp4	0.0	320.39201855659485	0.10833573341369629
26	92.40753245353699	fix_pre	0		120	25.0	2.5	/experiments/Knapen_AOT/aot_oldvideos/S_yt-xUPucH7kNAs_178.mp4	0.0	320.50035429000854	1.0028681755065918
26	93.41040062904358	movie	1		286	25.0	2.5	/experiments/Knapen_AOT/aot_oldvideos/S_yt-xUPucH7kNAs_178.mp4	0.0	321.50322246551514	2.497131109237671
26	95.90753173828125	fix_post	2		12	25.0	2.5	/experiments/Knapen_AOT/aot_oldvideos/S_yt-xUPucH7kNAs_178.mp4	0.0	324.0003535747528	0.10014915466308594
27	96.00768089294434	fix_pre	0		120	26.0	2.5	blank	1.0	324.1005027294159	0.9999542236328125
27	97.00763511657715	movie	1		300	26.0	2.5	blank	1.0	325.1004569530487	2.4999639987945557
27	99.5075991153717	fix_post	2		12	26.0	2.5	blank	1.0	327.60042095184326	0.09999728202819824
28	99.6075963973999	fix_pre	0		120	27.0	2.5	/experiments/Knapen_AOT/aot_oldvideos/S_yt-e5ua5Pj86E4_140.mp4	0.0	327.70041823387146	1.0042076110839844
28	100.61180400848389	movie	1		285	27.0	2.5	/experiments/Knapen_AOT/aot_oldvideos/S_yt-e5ua5Pj86E4_140.mp4	0.0	328.70462584495544	2.495882749557495
28	103.10768675804138	fix_post	2		12	27.0	2.5	/experiments/Knapen_AOT/aot_oldvideos/S_yt-e5ua5Pj86E4_140.mp4	0.0	331.20050859451294	0.09993171691894531
29	103.20761847496033	fix_pre	0		120	28.0	2.5	/experiments/Knapen_AOT/aot_oldvideos/S_ILSVRC2015_train_00415002.mp4	0.0	331.3004403114319	1.001551866531372
29	104.2091703414917	movie	1		289	28.0	2.5	/experiments/Knapen_AOT/aot_oldvideos/S_ILSVRC2015_train_00415002.mp4	0.0	332.30199217796326	2.498570203781128
29	106.70774054527283	fix_post	2		12	28.0	2.5	/experiments/Knapen_AOT/aot_oldvideos/S_ILSVRC2015_train_00415002.mp4	0.0	334.8005623817444	0.09999227523803711
30	106.80773282051086	fix_pre	0		120	29.0	2.5	/experiments/Knapen_AOT/aot_oldvideos/S_yt-a_awONsLFfE_107.mp4	0.0	334.9005546569824	0.9999489784240723
30	107.80768179893494	movie	1		284	29.0	2.5	/experiments/Knapen_AOT/aot_oldvideos/S_yt-a_awONsLFfE_107.mp4	0.0	335.9005036354065	2.491722583770752
30	110.29940438270569	fix_post	2		13	29.0	2.5	/experiments/Knapen_AOT/aot_oldvideos/S_yt-a_awONsLFfE_107.mp4	0.0	338.39222621917725	0.10833406448364258
31	110.40773844718933	fix_pre	0		120	30.0	2.5	/experiments/Knapen_AOT/aot_oldvideos/S_yt-65cexqxy5lU_35.mp4	0.0	338.5005602836609	1.002830982208252
31	111.41056942939758	movie	1		286	30.0	2.5	/experiments/Knapen_AOT/aot_oldvideos/S_yt-65cexqxy5lU_35.mp4	0.0	339.50339126586914	2.497190475463867
31	113.90775990486145	fix_post	2		12	30.0	2.5	/experiments/Knapen_AOT/aot_oldvideos/S_yt-65cexqxy5lU_35.mp4	0.0	342.000581741333	0.10007762908935547
32	114.0078375339508	fix_pre	0		120	31.0	2.5	/experiments/Knapen_AOT/aot_oldvideos/S_yt-JxqSboqaUPY_5.mp4	0.0	342.10065937042236	0.9999420642852783
32	115.00777959823608	movie	1		291	31.0	2.5	/experiments/Knapen_AOT/aot_oldvideos/S_yt-JxqSboqaUPY_5.mp4	0.0	343.10060143470764	2.492938995361328
32	117.50071859359741	fix_post	2		13	31.0	2.5	/experiments/Knapen_AOT/aot_oldvideos/S_yt-JxqSboqaUPY_5.mp4	0.0	345.59354043006897	0.1070857048034668
33	117.60780429840088	fix_pre	0		120	32.0	2.5	/experiments/Knapen_AOT/aot_oldvideos/S_yt-Y32yFYRmNVU_22.mp4	0.0	345.70062613487244	1.0042643547058105
33	118.61206865310669	movie	1		293	32.0	2.5	/experiments/Knapen_AOT/aot_oldvideos/S_yt-Y32yFYRmNVU_22.mp4	0.0	346.70489048957825	2.495866060256958
33	121.10793471336365	fix_post	2		12	32.0	2.5	/experiments/Knapen_AOT/aot_oldvideos/S_yt-Y32yFYRmNVU_22.mp4	0.0	349.2007565498352	0.0999765396118164
34	121.20791125297546	fix_pre	0		120	33.0	2.5	/experiments/Knapen_AOT/aot_oldvideos/S_yt-AJypa57HKqM_28.mp4	0.0	349.300733089447	1.0013940334320068
34	122.20930528640747	movie	1		299	33.0	2.5	/experiments/Knapen_AOT/aot_oldvideos/S_yt-AJypa57HKqM_28.mp4	0.0	350.302127122879	2.4986255168914795
34	124.70793080329895	fix_post	2		12	33.0	2.5	/experiments/Knapen_AOT/aot_oldvideos/S_yt-AJypa57HKqM_28.mp4	0.0	352.8007526397705	0.09999799728393555
35	124.80792880058289	fix_pre	0		120	34.0	2.5	/experiments/Knapen_AOT/aot_oldvideos/S_yt-YWfInCviN1s_126.mp4	0.0	352.90075063705444	1.0054969787597656
35	125.81342577934265	movie	1		289	34.0	2.5	/experiments/Knapen_AOT/aot_oldvideos/S_yt-YWfInCviN1s_126.mp4	0.0	353.9062476158142	2.486239194869995
35	128.29966497421265	fix_post	2		13	34.0	2.5	/experiments/Knapen_AOT/aot_oldvideos/S_yt-YWfInCviN1s_126.mp4	0.0	356.3924868106842	0.10830068588256836
36	128.40796566009521	fix_pre	0		120	35.0	2.5	/experiments/Knapen_AOT/aot_oldvideos/S_yt-Uih643A1YtA_110.mp4	0.0	356.5007874965668	1.0026888847351074
36	129.41065454483032	movie	1		286	35.0	2.5	/experiments/Knapen_AOT/aot_oldvideos/S_yt-Uih643A1YtA_110.mp4	0.0	357.5034763813019	2.4973530769348145
36	131.90800762176514	fix_post	2		12	35.0	2.5	/experiments/Knapen_AOT/aot_oldvideos/S_yt-Uih643A1YtA_110.mp4	0.0	360.0008294582367	0.09996414184570312
37	132.00797176361084	fix_pre	0		120	36.0	2.5	/experiments/Knapen_AOT/aot_oldvideos/S_ILSVRC2015_train_00552000.mp4	0.0	360.1007936000824	1.0000104904174805
37	133.00798225402832	movie	1		280	36.0	2.5	/experiments/Knapen_AOT/aot_oldvideos/S_ILSVRC2015_train_00552000.mp4	0.0	361.1008040904999	2.500056505203247
37	135.50803875923157	fix_post	2		12	36.0	2.5	/experiments/Knapen_AOT/aot_oldvideos/S_ILSVRC2015_train_00552000.mp4	0.0	363.6008605957031	0.09999656677246094
38	135.60803532600403	fix_pre	0		120	37.0	2.5	/experiments/Knapen_AOT/aot_oldvideos/S_yt-9PTQ4U4oPUU_243.mp4	0.0	363.7008571624756	1.0040667057037354
38	136.61210203170776	movie	1		287	37.0	2.5	/experiments/Knapen_AOT/aot_oldvideos/S_yt-9PTQ4U4oPUU_243.mp4	0.0	364.7049238681793	2.4959919452667236
38	139.1080939769745	fix_post	2		12	37.0	2.5	/experiments/Knapen_AOT/aot_oldvideos/S_yt-9PTQ4U4oPUU_243.mp4	0.0	367.20091581344604	0.10001087188720703
39	139.2081048488617	fix_pre	0		120	38.0	2.5	/experiments/Knapen_AOT/aot_oldvideos/S_yt-VypeVQ7gJ_k_578.mp4	0.0	367.30092668533325	1.001251459121704
39	140.2093563079834	movie	1		285	38.0	2.5	/experiments/Knapen_AOT/aot_oldvideos/S_yt-VypeVQ7gJ_k_578.mp4	0.0	368.30217814445496	2.498805522918701
39	142.7081618309021	fix_post	2		12	38.0	2.5	/experiments/Knapen_AOT/aot_oldvideos/S_yt-VypeVQ7gJ_k_578.mp4	0.0	370.80098366737366	0.09999561309814453
40	142.80815744400024	fix_pre	0		120	39.0	2.5	/experiments/Knapen_AOT/aot_oldvideos/S_yt-DpLc4e4bpu0_1467.mp4	0.0	370.9009792804718	0.9999773502349854
40	143.80813479423523	movie	1		288	39.0	2.5	/experiments/Knapen_AOT/aot_oldvideos/S_yt-DpLc4e4bpu0_1467.mp4	0.0	371.9009566307068	2.4916939735412598
40	146.2998287677765	fix_post	2		13	39.0	2.5	/experiments/Knapen_AOT/aot_oldvideos/S_yt-DpLc4e4bpu0_1467.mp4	0.0	374.39265060424805	0.10836243629455566
41	146.40819120407104	fix_pre	0		120	40.0	2.5	/experiments/Knapen_AOT/aot_oldvideos/S_yt-sBdvBO-TPNM_8.mp4	0.0	374.5010130405426	1.0025765895843506
41	147.4107677936554	movie	1		290	40.0	2.5	/experiments/Knapen_AOT/aot_oldvideos/S_yt-sBdvBO-TPNM_8.mp4	0.0	375.50358963012695	2.4974734783172607
41	149.90824127197266	fix_post	2		12	40.0	2.5	/experiments/Knapen_AOT/aot_oldvideos/S_yt-sBdvBO-TPNM_8.mp4	0.0	378.0010631084442	0.09999465942382812
42	150.00823593139648	fix_pre	0		120	41.0	2.5	blank	1.0	378.10105776786804	0.9999802112579346
42	151.00821614265442	movie	1		300	41.0	2.5	blank	1.0	379.101037979126	2.500056266784668
42	153.5082724094391	fix_post	2		12	41.0	2.5	blank	1.0	381.60109424591064	0.09999632835388184
43	153.60826873779297	fix_pre	0		120	42.0	2.5	/experiments/Knapen_AOT/aot_oldvideos/S_yt-4slVHFGPwEs_744.mp4	0.0	381.7010905742645	1.0039417743682861
43	154.61221051216125	movie	1		270	42.0	2.5	/experiments/Knapen_AOT/aot_oldvideos/S_yt-4slVHFGPwEs_744.mp4	0.0	382.7050323486328	2.4960973262786865
43	157.10830783843994	fix_post	2		11	42.0	2.5	/experiments/Knapen_AOT/aot_oldvideos/S_yt-4slVHFGPwEs_744.mp4	0.0	385.2011296749115	0.09170389175415039
44	157.2000117301941	fix_pre	0		121	43.0	2.5	/experiments/Knapen_AOT/aot_oldvideos/S_yt-mOQJwaPQbMg_5.mp4	0.0	385.29283356666565	1.0094749927520752
44	158.20948672294617	movie	1		287	43.0	2.5	/experiments/Knapen_AOT/aot_oldvideos/S_yt-mOQJwaPQbMg_5.mp4	0.0	386.3023085594177	2.4905357360839844
44	160.70002245903015	fix_post	2		12	43.0	2.5	/experiments/Knapen_AOT/aot_oldvideos/S_yt-mOQJwaPQbMg_5.mp4	0.0	388.7928442955017	0.10003876686096191
45	160.8000612258911	fix_pre	0		120	44.0	2.5	/experiments/Knapen_AOT/aot_oldvideos/S_yt-q8mfIumbHuo_84.mp4	0.0	388.89288306236267	0.9999446868896484
45	161.80000591278076	movie	1		288	44.0	2.5	/experiments/Knapen_AOT/aot_oldvideos/S_yt-q8mfIumbHuo_84.mp4	0.0	389.8928277492523	2.5000593662261963
45	164.30006527900696	fix_post	2		12	44.0	2.5	/experiments/Knapen_AOT/aot_oldvideos/S_yt-q8mfIumbHuo_84.mp4	0.0	392.3928871154785	0.1000216007232666
46	164.40008687973022	fix_pre	0		120	45.0	2.5	/experiments/Knapen_AOT/aot_oldvideos/S_yt-jovPh9BdlYI_215.mp4	0.0	392.4929087162018	1.0038683414459229
46	165.40395522117615	movie	1		284	45.0	2.5	/experiments/Knapen_AOT/aot_oldvideos/S_yt-jovPh9BdlYI_215.mp4	0.0	393.4967770576477	2.4961559772491455
46	167.9001111984253	fix_post	2		12	45.0	2.5	/experiments/Knapen_AOT/aot_oldvideos/S_yt-jovPh9BdlYI_215.mp4	0.0	395.99293303489685	0.1000208854675293
47	168.00013208389282	fix_pre	0		120	46.0	2.5	/experiments/Knapen_AOT/aot_oldvideos/S_yt-jsG6vM9Lkoc_318.mp4	0.0	396.0929539203644	1.0011265277862549
47	169.00125861167908	movie	1		286	46.0	2.5	/experiments/Knapen_AOT/aot_oldvideos/S_yt-jsG6vM9Lkoc_318.mp4	0.0	397.09408044815063	2.4989192485809326
47	171.50017786026	fix_post	2		12	46.0	2.5	/experiments/Knapen_AOT/aot_oldvideos/S_yt-jsG6vM9Lkoc_318.mp4	0.0	399.59299969673157	0.10003542900085449
48	171.60021328926086	fix_pre	0		120	47.0	2.5	/experiments/Knapen_AOT/aot_oldvideos/S_ILSVRC2015_train_00536000.mp4	0.0	399.6930351257324	1.0052647590637207
48	172.60547804832458	movie	1		286	47.0	2.5	/experiments/Knapen_AOT/aot_oldvideos/S_ILSVRC2015_train_00536000.mp4	0.0	400.69829988479614	2.4947855472564697
48	175.10026359558105	fix_post	2		12	47.0	2.5	/experiments/Knapen_AOT/aot_oldvideos/S_ILSVRC2015_train_00536000.mp4	0.0	403.1930854320526	0.0999441146850586
49	175.2002077102661	fix_pre	0		120	48.0	2.5	/experiments/Knapen_AOT/aot_oldvideos/S_yt-DfgpLIP0jnk_105.mp4	0.0	403.29302954673767	1.0024864673614502
49	176.20269417762756	movie	1		292	48.0	2.5	/experiments/Knapen_AOT/aot_oldvideos/S_yt-DfgpLIP0jnk_105.mp4	0.0	404.2955160140991	2.497565507888794
49	178.70025968551636	fix_post	2		12	48.0	2.5	/experiments/Knapen_AOT/aot_oldvideos/S_yt-DfgpLIP0jnk_105.mp4	0.0	406.7930815219879	0.09998726844787598
50	178.80024695396423	fix_pre	0		120	49.0	2.5	/experiments/Knapen_AOT/aot_oldvideos/S_yt-ePxv64kEqa0_177.mp4	0.0	406.8930687904358	0.999993085861206
50	179.80024003982544	movie	1		287	49.0	2.5	/experiments/Knapen_AOT/aot_oldvideos/S_yt-ePxv64kEqa0_177.mp4	0.0	407.893061876297	2.50004243850708
50	182.30028247833252	fix_post	2		12	49.0	2.5	/experiments/Knapen_AOT/aot_oldvideos/S_yt-ePxv64kEqa0_177.mp4	0.0	410.3931043148041	0.10001039505004883
51	182.40029287338257	fix_pre	0		120	50.0	2.5	/experiments/Knapen_AOT/aot_oldvideos/S_yt-Pd3_4Z2tbFU_47.mp4	0.0	410.4931147098541	1.0037827491760254
51	183.4040756225586	movie	1		287	50.0	2.5	/experiments/Knapen_AOT/aot_oldvideos/S_yt-Pd3_4Z2tbFU_47.mp4	0.0	411.49689745903015	2.496253252029419
51	185.900328874588	fix_post	2		12	50.0	2.5	/experiments/Knapen_AOT/aot_oldvideos/S_yt-Pd3_4Z2tbFU_47.mp4	0.0	413.99315071105957	0.10001111030578613
52	186.0003399848938	fix_pre	0		120	51.0	2.5	/experiments/Knapen_AOT/aot_oldvideos/S_yt-A1XT1fT1c8w_24.mp4	0.0	414.09316182136536	1.0009963512420654
52	187.00133633613586	movie	1		288	51.0	2.5	/experiments/Knapen_AOT/aot_oldvideos/S_yt-A1XT1fT1c8w_24.mp4	0.0	415.0941581726074	2.4990694522857666
52	189.50040578842163	fix_post	2		12	51.0	2.5	/experiments/Knapen_AOT/aot_oldvideos/S_yt-A1XT1fT1c8w_24.mp4	0.0	417.5932276248932	0.10000348091125488
53	189.60040926933289	fix_pre	0		120	52.0	2.5	blank	1.0	417.69323110580444	0.9999823570251465
53	190.60039162635803	movie	1		300	52.0	2.5	blank	1.0	418.6932134628296	2.5000386238098145
53	193.10043025016785	fix_post	2		12	52.0	2.5	blank	1.0	421.1932520866394	0.10004019737243652
54	193.20047044754028	fix_pre	0		120	53.0	2.5	/experiments/Knapen_AOT/aot_oldvideos/S_yt-cILZ_cB3_so_73.mp4	0.0	421.29329228401184	1.0083026885986328
54	194.20877313613892	movie	1		282	53.0	2.5	/experiments/Knapen_AOT/aot_oldvideos/S_yt-cILZ_cB3_so_73.mp4	0.0	422.3015949726105	2.4917116165161133
54	196.70048475265503	fix_post	2		12	53.0	2.5	/experiments/Knapen_AOT/aot_oldvideos/S_yt-cILZ_cB3_so_73.mp4	0.0	424.7933065891266	0.09997296333312988
55	196.80045771598816	fix_pre	0		120	54.0	2.5	/experiments/Knapen_AOT/aot_oldvideos/S_yt-gbDSSDcRlg4_31.mp4	0.0	424.8932795524597	1.0000076293945312
55	197.8004653453827	movie	1		291	54.0	2.5	/experiments/Knapen_AOT/aot_oldvideos/S_yt-gbDSSDcRlg4_31.mp4	0.0	425.89328718185425	2.50003981590271
55	200.3005051612854	fix_post	2		12	54.0	2.5	/experiments/Knapen_AOT/aot_oldvideos/S_yt-gbDSSDcRlg4_31.mp4	0.0	428.39332699775696	0.10007309913635254
56	200.40057826042175	fix_pre	0		120	55.0	2.5	/experiments/Knapen_AOT/aot_oldvideos/S_yt-MXCxHM_Ms8A_15.mp4	0.0	428.4934000968933	1.0036423206329346
56	201.4042205810547	movie	1		287	55.0	2.5	/experiments/Knapen_AOT/aot_oldvideos/S_yt-MXCxHM_Ms8A_15.mp4	0.0	429.49704241752625	2.4963595867156982
56	203.90058016777039	fix_post	2		12	55.0	2.5	/experiments/Knapen_AOT/aot_oldvideos/S_yt-MXCxHM_Ms8A_15.mp4	0.0	431.99340200424194	0.10087919235229492
57	204.00145936012268	fix_pre	0		120	56.0	2.5	/experiments/Knapen_AOT/aot_oldvideos/S_yt-pB-AcJ71tzA_20.mp4	0.0	432.09428119659424	1.0000016689300537
57	205.00146102905273	movie	1		289	56.0	2.5	/experiments/Knapen_AOT/aot_oldvideos/S_yt-pB-AcJ71tzA_20.mp4	0.0	433.0942828655243	2.499159812927246
57	207.50062084197998	fix_post	2		12	56.0	2.5	/experiments/Knapen_AOT/aot_oldvideos/S_yt-pB-AcJ71tzA_20.mp4	0.0	435.59344267845154	0.10001230239868164
58	207.60063314437866	fix_pre	0		120	57.0	2.5	/experiments/Knapen_AOT/aot_oldvideos/S_yt-DO1vncSoiJk_58.mp4	0.0	435.6934549808502	1.0050499439239502
58	208.6056830883026	movie	1		287	57.0	2.5	/experiments/Knapen_AOT/aot_oldvideos/S_yt-DO1vncSoiJk_58.mp4	0.0	436.69850492477417	2.4949653148651123
58	211.10064840316772	fix_post	2		12	57.0	2.5	/experiments/Knapen_AOT/aot_oldvideos/S_yt-DO1vncSoiJk_58.mp4	0.0	439.1934702396393	0.10008597373962402
59	211.20073437690735	fix_pre	0		120	58.0	2.5	/experiments/Knapen_AOT/aot_oldvideos/S_yt-ChAhBD9LrsU_223.mp4	0.0	439.2935562133789	1.002192735671997
59	212.20292711257935	movie	1		288	58.0	2.5	/experiments/Knapen_AOT/aot_oldvideos/S_yt-ChAhBD9LrsU_223.mp4	0.0	440.2957489490509	2.497866630554199
59	214.70079374313354	fix_post	2		12	58.0	2.5	/experiments/Knapen_AOT/aot_oldvideos/S_yt-ChAhBD9LrsU_223.mp4	0.0	442.7936155796051	0.09990572929382324
60	214.80069947242737	fix_pre	0		120	59.0	2.5	/experiments/Knapen_AOT/aot_oldvideos/S_yt-P2RwcXMKIbQ_1.mp4	0.0	442.8935213088989	0.9999926090240479
60	215.80069208145142	movie	1		291	59.0	2.5	/experiments/Knapen_AOT/aot_oldvideos/S_yt-P2RwcXMKIbQ_1.mp4	0.0	443.893513917923	2.5000970363616943
60	218.3007891178131	fix_post	2		12	59.0	2.5	/experiments/Knapen_AOT/aot_oldvideos/S_yt-P2RwcXMKIbQ_1.mp4	0.0	446.39361095428467	0.09999418258666992
61	218.40078330039978	fix_pre	0		120	60.0	2.5	/experiments/Knapen_AOT/aot_oldvideos/S_2E67nCgRCGk_75.mp4	0.0	446.49360513687134	1.0036091804504395
61	219.40439248085022	movie	1		279	60.0	2.5	/experiments/Knapen_AOT/aot_oldvideos/S_2E67nCgRCGk_75.mp4	0.0	447.4972143173218	2.4964022636413574
61	221.90079474449158	fix_post	2		12	60.0	2.5	/experiments/Knapen_AOT/aot_oldvideos/S_2E67nCgRCGk_75.mp4	0.0	449.99361658096313	0.10095763206481934
62	222.0017523765564	fix_pre	0		120	61.0	2.5	/experiments/Knapen_AOT/aot_oldvideos/S_yt-2U5u3lLJx5M_7.mp4	0.0	450.09457421302795	0.9998400211334229
62	223.00159239768982	movie	1		280	61.0	2.5	/experiments/Knapen_AOT/aot_oldvideos/S_yt-2U5u3lLJx5M_7.mp4	0.0	451.0944142341614	2.4999163150787354
62	225.50150871276855	fix_post	2		12	61.0	2.5	/experiments/Knapen_AOT/aot_oldvideos/S_yt-2U5u3lLJx5M_7.mp4	0.0	453.5943305492401	0.09933805465698242
63	225.60084676742554	fix_pre	0		120	62.0	2.5	/experiments/Knapen_AOT/aot_oldvideos/S_yt-RL1chIcbTPQ_11.mp4	0.0	453.6936686038971	1.0049397945404053
63	226.60578656196594	movie	1		290	62.0	2.5	/experiments/Knapen_AOT/aot_oldvideos/S_yt-RL1chIcbTPQ_11.mp4	0.0	454.6986083984375	2.4950973987579346
63	229.10088396072388	fix_post	2		12	62.0	2.5	/experiments/Knapen_AOT/aot_oldvideos/S_yt-RL1chIcbTPQ_11.mp4	0.0	457.19370579719543	0.09999322891235352
64	229.20087718963623	fix_pre	0		120	63.0	2.5	/experiments/Knapen_AOT/aot_oldvideos/S_yt-u0N1IsXxLM4_103.mp4	0.0	457.2936990261078	1.0021626949310303
64	230.20303988456726	movie	1		285	63.0	2.5	/experiments/Knapen_AOT/aot_oldvideos/S_yt-u0N1IsXxLM4_103.mp4	0.0	458.2958617210388	2.4978950023651123
64	232.70093488693237	fix_post	2		12	63.0	2.5	/experiments/Knapen_AOT/aot_oldvideos/S_yt-u0N1IsXxLM4_103.mp4	0.0	460.79375672340393	0.09999537467956543
65	232.80093026161194	fix_pre	0		120	64.0	2.5	/experiments/Knapen_AOT/aot_oldvideos/S_yt-VyVvEvP6MRM_124.mp4	0.0	460.8937520980835	0.9999990463256836
65	233.80092930793762	movie	1		295	64.0	2.5	/experiments/Knapen_AOT/aot_oldvideos/S_yt-VyVvEvP6MRM_124.mp4	0.0	461.8937511444092	2.500035524368286
65	236.3009648323059	fix_post	2		12	64.0	2.5	/experiments/Knapen_AOT/aot_oldvideos/S_yt-VyVvEvP6MRM_124.mp4	0.0	464.39378666877747	0.10003352165222168
66	236.40099835395813	fix_pre	0		120	65.0	2.5	/experiments/Knapen_AOT/aot_oldvideos/S_yt-GBqXIFjZf8w_28.mp4	0.0	464.4938201904297	1.0035037994384766
66	237.4045021533966	movie	1		292	65.0	2.5	/experiments/Knapen_AOT/aot_oldvideos/S_yt-GBqXIFjZf8w_28.mp4	0.0	465.49732398986816	2.496507406234741
66	239.90100955963135	fix_post	2		12	65.0	2.5	/experiments/Knapen_AOT/aot_oldvideos/S_yt-GBqXIFjZf8w_28.mp4	0.0	467.9938313961029	0.10002851486206055
67	240.0010380744934	fix_pre	0		120	66.0	2.5	blank	1.0	468.09385991096497	1.0000128746032715
67	241.00105094909668	movie	1		300	66.0	2.5	blank	1.0	469.09387278556824	2.5000083446502686
67	243.50105929374695	fix_post	2		12	66.0	2.5	blank	1.0	471.5938811302185	0.10004353523254395
68	243.6011028289795	fix_pre	0		120	67.0	2.5	/experiments/Knapen_AOT/aot_oldvideos/S_yt-hjqjWlzPRjY_76.mp4	0.0	471.69392466545105	1.0083849430084229
68	244.60948777198792	movie	1		278	67.0	2.5	/experiments/Knapen_AOT/aot_oldvideos/S_yt-hjqjWlzPRjY_76.mp4	0.0	472.7023096084595	2.4916305541992188
68	247.10111832618713	fix_post	2		12	67.0	2.5	/experiments/Knapen_AOT/aot_oldvideos/S_yt-hjqjWlzPRjY_76.mp4	0.0	475.1939401626587	0.09999895095825195
69	247.20111727714539	fix_pre	0		120	68.0	2.5	/experiments/Knapen_AOT/aot_oldvideos/S_yt-bWXohhodbjg_86.mp4	0.0	475.29393911361694	1.0020744800567627
69	248.20319175720215	movie	1		282	68.0	2.5	/experiments/Knapen_AOT/aot_oldvideos/S_yt-bWXohhodbjg_86.mp4	0.0	476.2960135936737	2.497969150543213
69	250.70116090774536	fix_post	2		12	68.0	2.5	/experiments/Knapen_AOT/aot_oldvideos/S_yt-bWXohhodbjg_86.mp4	0.0	478.7939827442169	0.0999906063079834
70	250.80115151405334	fix_pre	0		120	69.0	2.5	/experiments/Knapen_AOT/aot_oldvideos/S_CHWw361oMSQ_195.mp4	0.0	478.8939733505249	0.999992847442627
70	251.80114436149597	movie	1		287	69.0	2.5	/experiments/Knapen_AOT/aot_oldvideos/S_CHWw361oMSQ_195.mp4	0.0	479.89396619796753	2.5000529289245605
70	254.30119729042053	fix_post	2		12	69.0	2.5	/experiments/Knapen_AOT/aot_oldvideos/S_CHWw361oMSQ_195.mp4	0.0	482.3940191268921	0.1000661849975586
71	254.4012634754181	fix_pre	0		120	70.0	2.5	/experiments/Knapen_AOT/aot_oldvideos/S_yt-cWBQB8CxsVY_69.mp4	0.0	482.49408531188965	1.0033388137817383
71	255.40460228919983	movie	1		266	70.0	2.5	/experiments/Knapen_AOT/aot_oldvideos/S_yt-cWBQB8CxsVY_69.mp4	0.0	483.4974241256714	2.4966490268707275
71	257.90125131607056	fix_post	2		12	70.0	2.5	/experiments/Knapen_AOT/aot_oldvideos/S_yt-cWBQB8CxsVY_69.mp4	0.0	485.9940731525421	0.10062122344970703
72	258.00187253952026	fix_pre	0		120	71.0	2.5	/experiments/Knapen_AOT/aot_oldvideos/S_yt-g_RCws799LQ_52.mp4	0.0	486.0946943759918	1.0000181198120117
72	259.0018906593323	movie	1		282	71.0	2.5	/experiments/Knapen_AOT/aot_oldvideos/S_yt-g_RCws799LQ_52.mp4	0.0	487.09471249580383	2.4994077682495117
72	261.5012984275818	fix_post	2		12	71.0	2.5	/experiments/Knapen_AOT/aot_oldvideos/S_yt-g_RCws799LQ_52.mp4	0.0	489.59412026405334	0.09998631477355957
73	261.60128474235535	fix_pre	0		120	72.0	2.5	/experiments/Knapen_AOT/aot_oldvideos/S_ILSVRC2015_train_00611000.mp4	0.0	489.6941065788269	1.004767656326294
73	262.60605239868164	movie	1		282	72.0	2.5	/experiments/Knapen_AOT/aot_oldvideos/S_ILSVRC2015_train_00611000.mp4	0.0	490.6988742351532	2.495309591293335
73	265.101361989975	fix_post	2		12	72.0	2.5	/experiments/Knapen_AOT/aot_oldvideos/S_ILSVRC2015_train_00611000.mp4	0.0	493.19418382644653	0.10201859474182129
74	265.2033805847168	fix_pre	0		120	73.0	2.5	/experiments/Knapen_AOT/aot_oldvideos/S_yt-p-kbRhTdyiQ_31.mp4	0.0	493.29620242118835	1.0000064373016357
74	266.20338702201843	movie	1		277	73.0	2.5	/experiments/Knapen_AOT/aot_oldvideos/S_yt-p-kbRhTdyiQ_31.mp4	0.0	494.29620885849	2.498063087463379
74	268.7014501094818	fix_post	2		12	73.0	2.5	/experiments/Knapen_AOT/aot_oldvideos/S_yt-p-kbRhTdyiQ_31.mp4	0.0	496.79427194595337	0.09994173049926758
75	268.8013918399811	fix_pre	0		120	74.0	2.5	/experiments/Knapen_AOT/aot_oldvideos/S_yt-1VTxnf2hZ0w_675.mp4	0.0	496.89421367645264	1.0083420276641846
75	269.80973386764526	movie	1		277	74.0	2.5	/experiments/Knapen_AOT/aot_oldvideos/S_yt-1VTxnf2hZ0w_675.mp4	0.0	497.9025557041168	2.491685390472412
75	272.3014192581177	fix_post	2		12	74.0	2.5	/experiments/Knapen_AOT/aot_oldvideos/S_yt-1VTxnf2hZ0w_675.mp4	0.0	500.39424109458923	0.1000216007232666
76	272.40144085884094	fix_pre	0		120	75.0	2.5	/experiments/Knapen_AOT/aot_oldvideos/S_ILSVRC2015_train_00707000.mp4	0.0	500.4942626953125	1.0033259391784668
76	273.4047667980194	movie	1		291	75.0	2.5	/experiments/Knapen_AOT/aot_oldvideos/S_ILSVRC2015_train_00707000.mp4	0.0	501.49758863449097	2.496708393096924
76	275.90147519111633	fix_post	2		12	75.0	2.5	/experiments/Knapen_AOT/aot_oldvideos/S_ILSVRC2015_train_00707000.mp4	0.0	503.9942970275879	0.10056734085083008
77	276.00204253196716	fix_pre	0		120	76.0	2.5	/experiments/Knapen_AOT/aot_oldvideos/S_yt-D9iwtEHx8M0_20.mp4	0.0	504.0948643684387	0.9999377727508545
77	277.001980304718	movie	1		285	76.0	2.5	/experiments/Knapen_AOT/aot_oldvideos/S_yt-D9iwtEHx8M0_20.mp4	0.0	505.0948021411896	2.4995410442352295
77	279.50152134895325	fix_post	2		12	76.0	2.5	/experiments/Knapen_AOT/aot_oldvideos/S_yt-D9iwtEHx8M0_20.mp4	0.0	507.5943431854248	0.10001659393310547
78	279.60153794288635	fix_pre	0		120	77.0	2.5	/experiments/Knapen_AOT/aot_oldvideos/S_yt-2wb0b0pdSxU_59.mp4	0.0	507.6943597793579	1.0046615600585938
78	280.60619950294495	movie	1		274	77.0	2.5	/experiments/Knapen_AOT/aot_oldvideos/S_yt-2wb0b0pdSxU_59.mp4	0.0	508.6990213394165	2.495384454727173
78	283.1015839576721	fix_post	2		12	77.0	2.5	/experiments/Knapen_AOT/aot_oldvideos/S_yt-2wb0b0pdSxU_59.mp4	0.0	511.1944057941437	0.09999942779541016
79	283.20158338546753	fix_pre	0		120	78.0	2.5	/experiments/Knapen_AOT/aot_oldvideos/S_yt-NqZHX-eOVUA_35.mp4	0.0	511.2944052219391	1.0018627643585205
79	284.20344614982605	movie	1		282	78.0	2.5	/experiments/Knapen_AOT/aot_oldvideos/S_yt-NqZHX-eOVUA_35.mp4	0.0	512.2962679862976	2.499894857406616
79	286.70334100723267	fix_post	2		12	78.0	2.5	/experiments/Knapen_AOT/aot_oldvideos/S_yt-NqZHX-eOVUA_35.mp4	0.0	514.7961628437042	0.09826469421386719
80	286.80160570144653	fix_pre	0		120	79.0	2.5	blank	1.0	514.8944275379181	1.0000169277191162
80	287.80162262916565	movie	1		300	79.0	2.5	blank	1.0	515.8944444656372	2.500025987625122
80	290.30164861679077	fix_post	2		12	79.0	2.5	blank	1.0	518.3944704532623	0.10001420974731445
81	290.4016628265381	fix_pre	0		120	80.0	2.5	/experiments/Knapen_AOT/aot_oldvideos/S_flickr-thelastdon-8662706978_3.mp4	0.0	518.4944846630096	1.008349895477295
81	291.4100127220154	movie	1		257	80.0	2.5	/experiments/Knapen_AOT/aot_oldvideos/S_flickr-thelastdon-8662706978_3.mp4	0.0	519.5028345584869	2.4916839599609375
81	293.9016966819763	fix_post	2		12	80.0	2.5	/experiments/Knapen_AOT/aot_oldvideos/S_flickr-thelastdon-8662706978_3.mp4	0.0	521.9945185184479	0.10041522979736328
82	294.0021119117737	fix_pre	0		120	81.0	2.5	/experiments/Knapen_AOT/aot_oldvideos/S_yt-e9ttJw0BUuU_40.mp4	0.0	522.0949337482452	1.0000252723693848
82	295.00213718414307	movie	1		270	81.0	2.5	/experiments/Knapen_AOT/aot_oldvideos/S_yt-e9ttJw0BUuU_40.mp4	0.0	523.0949590206146	2.499600887298584
82	297.50173807144165	fix_post	2		12	81.0	2.5	/experiments/Knapen_AOT/aot_oldvideos/S_yt-e9ttJw0BUuU_40.mp4	0.0	525.5945599079132	0.10003089904785156
83	297.6017689704895	fix_pre	0		120	82.0	2.5	/experiments/Knapen_AOT/aot_oldvideos/S_yt-Z1ozMh4szTk_13.mp4	0.0	525.6945908069611	1.0045907497406006
83	298.6063597202301	movie	1		258	82.0	2.5	/experiments/Knapen_AOT/aot_oldvideos/S_yt-Z1ozMh4szTk_13.mp4	0.0	526.6991815567017	2.4954264163970947
83	301.1017861366272	fix_post	2		12	82.0	2.5	/experiments/Knapen_AOT/aot_oldvideos/S_yt-Z1ozMh4szTk_13.mp4	0.0	529.1946079730988	0.10001707077026367
84	301.20180320739746	fix_pre	0		120	83.0	2.5	/experiments/Knapen_AOT/aot_oldvideos/S_yt-ihCTIoE7qsk_730.mp4	0.0	529.294625043869	1.0018236637115479
84	302.203626871109	movie	1		260	83.0	2.5	/experiments/Knapen_AOT/aot_oldvideos/S_yt-ihCTIoE7qsk_730.mp4	0.0	530.2964487075806	2.498199462890625
84	304.70182633399963	fix_post	2		12	83.0	2.5	/experiments/Knapen_AOT/aot_oldvideos/S_yt-ihCTIoE7qsk_730.mp4	0.0	532.7946481704712	0.10000228881835938
85	304.801828622818	fix_pre	0		120	84.0	2.5	blank	1.0	532.8946504592896	1.0000298023223877
85	305.8018584251404	movie	1		300	84.0	2.5	blank	1.0	533.8946802616119	2.500023603439331
85	308.3018820285797	fix_post	2		12	84.0	2.5	blank	1.0	536.3947038650513	0.10004758834838867
86	308.4019296169281	fix_pre	0		120	85.0	2.5	/experiments/Knapen_AOT/aot_oldvideos/S_yt-PQYnj2BR17I_16.mp4	0.0	536.4947514533997	1.0031085014343262
86	309.4050381183624	movie	1		270	85.0	2.5	/experiments/Knapen_AOT/aot_oldvideos/S_yt-PQYnj2BR17I_16.mp4	0.0	537.497859954834	2.496950626373291
86	311.9019887447357	fix_post	2		12	85.0	2.5	/experiments/Knapen_AOT/aot_oldvideos/S_yt-PQYnj2BR17I_16.mp4	0.0	539.9948105812073	0.10024881362915039
87	312.00223755836487	fix_pre	0		120	86.0	2.5	/experiments/Knapen_AOT/aot_oldvideos/S_yt-be6x_357tjE_41.mp4	0.0	540.0950593948364	1.0080451965332031
87	313.01028275489807	movie	1		285	86.0	2.5	/experiments/Knapen_AOT/aot_oldvideos/S_yt-be6x_357tjE_41.mp4	0.0	541.1031045913696	2.4918930530548096
87	315.5021758079529	fix_post	2		12	86.0	2.5	/experiments/Knapen_AOT/aot_oldvideos/S_yt-be6x_357tjE_41.mp4	0.0	543.5949976444244	0.09983301162719727
88	315.6020088195801	fix_pre	0		120	87.0	2.5	/experiments/Knapen_AOT/aot_oldvideos/S_ILSVRC2015_train_00416000.mp4	0.0	543.6948306560516	1.0044336318969727
88	316.60644245147705	movie	1		251	87.0	2.5	/experiments/Knapen_AOT/aot_oldvideos/S_ILSVRC2015_train_00416000.mp4	0.0	544.6992642879486	2.4956703186035156
88	319.10211277008057	fix_post	2		11	87.0	2.5	/experiments/Knapen_AOT/aot_oldvideos/S_ILSVRC2015_train_00416000.mp4	0.0	547.1949346065521	0.09990978240966797
89	319.20202255249023	fix_pre	0		120	88.0	2.5	/experiments/Knapen_AOT/aot_oldvideos/S_yt-gbDSSDcRlg4_19.mp4	0.0	547.2948443889618	1.008629322052002
89	320.21065187454224	movie	1		255	88.0	2.5	/experiments/Knapen_AOT/aot_oldvideos/S_yt-gbDSSDcRlg4_19.mp4	0.0	548.3034737110138	2.4914121627807617
89	322.702064037323	fix_post	2		12	88.0	2.5	/experiments/Knapen_AOT/aot_oldvideos/S_yt-gbDSSDcRlg4_19.mp4	0.0	550.7948858737946	0.10000944137573242
90	322.80207347869873	fix_pre	0		120	89.0	2.5	/experiments/Knapen_AOT/aot_oldvideos/S_yt-PDNWrJ2bZ6I_79.mp4	0.0	550.8948953151703	1.0058138370513916
90	323.8078873157501	movie	1		255	89.0	2.5	/experiments/Knapen_AOT/aot_oldvideos/S_yt-PDNWrJ2bZ6I_79.mp4	0.0	551.9007091522217	2.4942169189453125
90	326.30210423469543	fix_post	2		12	89.0	2.5	/experiments/Knapen_AOT/aot_oldvideos/S_yt-PDNWrJ2bZ6I_79.mp4	0.0	554.394926071167	0.1000051498413086
91	326.40210938453674	fix_pre	0		120	90.0	2.5	/experiments/Knapen_AOT/aot_oldvideos/S_yt-iCGU1R75BZo_52.mp4	0.0	554.4949312210083	1.0030708312988281
91	327.40518021583557	movie	1		253	90.0	2.5	/experiments/Knapen_AOT/aot_oldvideos/S_yt-iCGU1R75BZo_52.mp4	0.0	555.4980020523071	2.496971368789673
91	329.90215158462524	fix_post	2		12	90.0	2.5	/experiments/Knapen_AOT/aot_oldvideos/S_yt-iCGU1R75BZo_52.mp4	0.0	557.9949734210968	0.10023379325866699
92	330.0023853778839	fix_pre	0		120	91.0	2.5	blank	1.0	558.0952072143555	0.9997799396514893
92	331.0021653175354	movie	1		300	91.0	2.5	blank	1.0	559.094987154007	2.500027656555176
92	333.5021929740906	fix_post	2		12	91.0	2.5	blank	1.0	561.5950148105621	0.10002803802490234
93	333.6022210121155	fix_pre	0		120	92.0	2.5	/experiments/Knapen_AOT/aot_oldvideos/S_ILSVRC2015_train_00768002.mp4	0.0	561.695042848587	1.0043582916259766
93	334.60657930374146	movie	1		262	92.0	2.5	/experiments/Knapen_AOT/aot_oldvideos/S_ILSVRC2015_train_00768002.mp4	0.0	562.699401140213	2.4956672191619873
93	337.10224652290344	fix_post	2		12	92.0	2.5	/experiments/Knapen_AOT/aot_oldvideos/S_ILSVRC2015_train_00768002.mp4	0.0	565.195068359375	0.1000065803527832
94	337.2022531032562	fix_pre	0		120	93.0	2.5	/experiments/Knapen_AOT/aot_oldvideos/S_yt-cAFx29wS_xo_130.mp4	0.0	565.2950749397278	1.0083580017089844
94	338.2106111049652	movie	1		275	93.0	2.5	/experiments/Knapen_AOT/aot_oldvideos/S_yt-cAFx29wS_xo_130.mp4	0.0	566.3034329414368	2.4916727542877197
94	340.70228385925293	fix_post	2		12	93.0	2.5	/experiments/Knapen_AOT/aot_oldvideos/S_yt-cAFx29wS_xo_130.mp4	0.0	568.7951056957245	0.10004591941833496
95	340.80232977867126	fix_pre	0		120	94.0	2.5	/experiments/Knapen_AOT/aot_oldvideos/S_yt-58F4cMRhSw8_69.mp4	0.0	568.8951516151428	0.9999539852142334
95	341.8022837638855	movie	1		274	94.0	2.5	/experiments/Knapen_AOT/aot_oldvideos/S_yt-58F4cMRhSw8_69.mp4	0.0	569.895105600357	2.5000557899475098
95	344.302339553833	fix_post	2		12	94.0	2.5	/experiments/Knapen_AOT/aot_oldvideos/S_yt-58F4cMRhSw8_69.mp4	0.0	572.3951613903046	0.10004329681396484
96	344.402382850647	fix_pre	0		120	95.0	2.5	/experiments/Knapen_AOT/aot_oldvideos/S_yt-5IEO9Gn5fZ4_59.mp4	0.0	572.4952046871185	1.002882480621338
96	345.4052653312683	movie	1		265	95.0	2.5	/experiments/Knapen_AOT/aot_oldvideos/S_yt-5IEO9Gn5fZ4_59.mp4	0.0	573.4980871677399	2.497119426727295
96	347.9023847579956	fix_post	2		11	95.0	2.5	/experiments/Knapen_AOT/aot_oldvideos/S_yt-5IEO9Gn5fZ4_59.mp4	0.0	575.9952065944672	0.10019469261169434
97	348.0025794506073	fix_pre	0		120	96.0	2.5	blank	1.0	576.0954012870789	0.9998743534088135
97	349.0024538040161	movie	1		300	96.0	2.5	blank	1.0	577.0952756404877	2.499992847442627
97	351.50244665145874	fix_post	2		12	96.0	2.5	blank	1.0	579.5952684879303	0.09999656677246094
98	351.6024432182312	fix_pre	0		120	97.0	2.5	/experiments/Knapen_AOT/aot_oldvideos/S_yt-gCKmHV5tdSk_59.mp4	0.0	579.6952650547028	1.0042593479156494
98	352.60670256614685	movie	1		275	97.0	2.5	/experiments/Knapen_AOT/aot_oldvideos/S_yt-gCKmHV5tdSk_59.mp4	0.0	580.6995244026184	2.495788097381592
98	355.10249066352844	fix_post	2		12	97.0	2.5	/experiments/Knapen_AOT/aot_oldvideos/S_yt-gCKmHV5tdSk_59.mp4	0.0	583.1953125	0.09996247291564941
99	355.2024531364441	fix_pre	0		120	98.0	2.5	/experiments/Knapen_AOT/aot_oldvideos/S_yt-16eN45838LU_255.mp4	0.0	583.2952749729156	1.001591682434082
99	356.2040448188782	movie	1		256	98.0	2.5	/experiments/Knapen_AOT/aot_oldvideos/S_yt-16eN45838LU_255.mp4	0.0	584.2968666553497	2.4998204708099365
99	358.7038652896881	fix_post	2		12	98.0	2.5	/experiments/Knapen_AOT/aot_oldvideos/S_yt-16eN45838LU_255.mp4	0.0	586.7966871261597	0.09868383407592773
100	358.80254912376404	fix_pre	0		120	99.0	2.5	/experiments/Knapen_AOT/aot_oldvideos/S_yt-NVYfkMFUxMk_466.mp4	0.0	586.8953709602356	1.0055999755859375
100	359.80814909935	movie	1		261	99.0	2.5	/experiments/Knapen_AOT/aot_oldvideos/S_yt-NVYfkMFUxMk_466.mp4	0.0	587.9009709358215	2.4944069385528564
100	362.30255603790283	fix_post	2		12	99.0	2.5	/experiments/Knapen_AOT/aot_oldvideos/S_yt-NVYfkMFUxMk_466.mp4	0.0	590.3953778743744	0.10001349449157715
101	362.4025695323944	fix_pre	0		120	100.0	2.5	/experiments/Knapen_AOT/aot_oldvideos/S_yt-iuqdW5OLSzc_6.mp4	0.0	590.495391368866	1.0027964115142822
101	363.4053659439087	movie	1		265	100.0	2.5	/experiments/Knapen_AOT/aot_oldvideos/S_yt-iuqdW5OLSzc_6.mp4	0.0	591.4981877803802	2.497269630432129
101	365.9026355743408	fix_post	2		12	100.0	2.5	/experiments/Knapen_AOT/aot_oldvideos/S_yt-iuqdW5OLSzc_6.mp4	0.0	593.9954574108124	0.10009551048278809
102	366.0027310848236	fix_pre	0		120	101.0	2.5	/experiments/Knapen_AOT/aot_oldvideos/S_yt-T2CzKcU8pHo_17.mp4	0.0	594.0955529212952	1.0082485675811768
102	367.0109796524048	movie	1		276	101.0	2.5	/experiments/Knapen_AOT/aot_oldvideos/S_yt-T2CzKcU8pHo_17.mp4	0.0	595.1038014888763	2.491666078567505
102	369.5026457309723	fix_post	2		12	101.0	2.5	/experiments/Knapen_AOT/aot_oldvideos/S_yt-T2CzKcU8pHo_17.mp4	0.0	597.5954675674438	0.10002708435058594
103	369.6026728153229	fix_pre	0		120	102.0	2.5	/experiments/Knapen_AOT/aot_oldvideos/S_yt-z8fEOmzDlD4_21.mp4	0.0	597.6954946517944	1.004173755645752
103	370.6068465709686	movie	1		280	102.0	2.5	/experiments/Knapen_AOT/aot_oldvideos/S_yt-z8fEOmzDlD4_21.mp4	0.0	598.6996684074402	2.4958481788635254
103	373.10269474983215	fix_post	2		12	102.0	2.5	/experiments/Knapen_AOT/aot_oldvideos/S_yt-z8fEOmzDlD4_21.mp4	0.0	601.1955165863037	0.10003781318664551
104	373.2027325630188	fix_pre	0		120	103.0	2.5	/experiments/Knapen_AOT/aot_oldvideos/S_yt-T2Izta7lYZg_111.mp4	0.0	601.2955543994904	1.0084505081176758
104	374.2111830711365	movie	1		278	103.0	2.5	/experiments/Knapen_AOT/aot_oldvideos/S_yt-T2Izta7lYZg_111.mp4	0.0	602.304004907608	2.491583824157715
104	376.7027668952942	fix_post	2		12	103.0	2.5	/experiments/Knapen_AOT/aot_oldvideos/S_yt-T2Izta7lYZg_111.mp4	0.0	604.7955887317657	0.09997391700744629
105	376.80274081230164	fix_pre	0		120	104.0	2.5	/experiments/Knapen_AOT/aot_oldvideos/S_yt-Y-8d31A9JXg_12.mp4	0.0	604.8955626487732	1.0000059604644775
105	377.8027467727661	movie	1		277	104.0	2.5	/experiments/Knapen_AOT/aot_oldvideos/S_yt-Y-8d31A9JXg_12.mp4	0.0	605.8955686092377	2.50004243850708
105	380.3027892112732	fix_post	2		12	104.0	2.5	/experiments/Knapen_AOT/aot_oldvideos/S_yt-Y-8d31A9JXg_12.mp4	0.0	608.3956110477448	0.10000801086425781
107	380.40279722213745	stim	0		1716					608.495619058609	14.30018424987793
