trial_nr	onset	event_type	phase	response	nr_frames	movie_index	movie_duration	movie_file	blank	onset_abs	duration
0	0.11100983619689941	stim	0		604					69.43003487586975	5.038663148880005
0	5.141430854797363	response	0	space						74.46045589447021	
1	5.149672985076904	fix_pre	0		121	0.0	2.5	/experiments/knapen_aot/videos/S_yt-loe3Rqs8TEM_46.mp4	0.0	74.46869802474976	1.008363962173462
1	6.158036947250366	movie	1		290	0.0	2.5	/experiments/knapen_aot/videos/S_yt-loe3Rqs8TEM_46.mp4	0.0	75.47706198692322	2.4999051094055176
1	8.657942056655884	fix_post	2		12	0.0	2.5	/experiments/knapen_aot/videos/S_yt-loe3Rqs8TEM_46.mp4	0.0	77.97696709632874	0.10010981559753418
2	8.758051872253418	fix_pre	0		120	1.0	2.5	/experiments/knapen_aot/videos/S_yt-Z_irN6cNiD4_148.mp4	0.0	78.07707691192627	0.9999430179595947
2	9.757994890213013	movie	1		295	1.0	2.5	/experiments/knapen_aot/videos/S_yt-Z_irN6cNiD4_148.mp4	0.0	79.07701992988586	2.5000271797180176
2	12.25802206993103	fix_post	2		12	1.0	2.5	/experiments/knapen_aot/videos/S_yt-Z_irN6cNiD4_148.mp4	0.0	81.57704710960388	0.09996390342712402
3	12.357985973358154	fix_pre	0		120	2.0	2.5	/experiments/knapen_aot/videos/S_yt-t9sowxGR_s4_1.mp4	0.0	81.677011013031	1.000096082687378
3	13.358082056045532	movie	1		230	2.0	2.5	/experiments/knapen_aot/videos/S_yt-t9sowxGR_s4_1.mp4	0.0	82.67710709571838	2.499868869781494
3	15.857950925827026	fix_post	2		12	2.0	2.5	/experiments/knapen_aot/videos/S_yt-t9sowxGR_s4_1.mp4	0.0	85.17697596549988	0.10043096542358398
4	15.95838189125061	fix_pre	0		120	3.0	2.5	/experiments/knapen_aot/videos/S_yt-6_SgWsPne7M_11.mp4	0.0	85.27740693092346	0.9996190071105957
4	16.958000898361206	movie	1		290	3.0	2.5	/experiments/knapen_aot/videos/S_yt-6_SgWsPne7M_11.mp4	0.0	86.27702593803406	2.5001070499420166
4	19.458107948303223	fix_post	2		12	3.0	2.5	/experiments/knapen_aot/videos/S_yt-6_SgWsPne7M_11.mp4	0.0	88.77713298797607	0.09989309310913086
5	19.558001041412354	fix_pre	0		120	4.0	2.5	/experiments/knapen_aot/videos/S_yt-n12iRXTksXA_65.mp4	0.0	88.8770260810852	1.0001168251037598
5	20.558117866516113	movie	1		297	4.0	2.5	/experiments/knapen_aot/videos/S_yt-n12iRXTksXA_65.mp4	0.0	89.87714290618896	2.4998719692230225
5	23.057989835739136	fix_post	2		12	4.0	2.5	/experiments/knapen_aot/videos/S_yt-n12iRXTksXA_65.mp4	0.0	92.37701487541199	0.0999910831451416
6	23.157980918884277	fix_pre	0		120	5.0	2.5	blank	1.0	92.47700595855713	1.0000519752502441
6	24.15803289413452	movie	1		300	5.0	2.5	blank	1.0	93.47705793380737	2.5000481605529785
6	26.6580810546875	fix_post	2		12	5.0	2.5	blank	1.0	95.97710609436035	0.09987592697143555
7	26.757956981658936	fix_pre	0		120	6.0	2.5	/experiments/knapen_aot/videos/S_yt-S6N5FyjSFZE_4.mp4	0.0	96.07698202133179	0.9999239444732666
7	27.757880926132202	movie	1		296	6.0	2.5	/experiments/knapen_aot/videos/S_yt-S6N5FyjSFZE_4.mp4	0.0	97.07690596580505	2.5000550746917725
7	30.257936000823975	fix_post	2		12	6.0	2.5	/experiments/knapen_aot/videos/S_yt-S6N5FyjSFZE_4.mp4	0.0	99.57696104049683	0.10020804405212402
8	30.3581440448761	fix_pre	0		120	7.0	2.5	/experiments/knapen_aot/videos/S_yt-sZBe-xmTySc_8.mp4	0.0	99.67716908454895	0.9997508525848389
8	31.357894897460938	movie	1		298	7.0	2.5	/experiments/knapen_aot/videos/S_yt-sZBe-xmTySc_8.mp4	0.0	100.67691993713379	2.499979019165039
8	33.85787391662598	fix_post	2		12	7.0	2.5	/experiments/knapen_aot/videos/S_yt-sZBe-xmTySc_8.mp4	0.0	103.17689895629883	0.10006999969482422
9	33.9579439163208	fix_pre	0		120	8.0	2.5	/experiments/knapen_aot/videos/S_yt-qHUewJuLW4o_19.mp4	0.0	103.27696895599365	0.9999239444732666
9	34.95786786079407	movie	1		295	8.0	2.5	/experiments/knapen_aot/videos/S_yt-qHUewJuLW4o_19.mp4	0.0	104.27689290046692	2.500019073486328
9	37.457886934280396	fix_post	2		12	8.0	2.5	/experiments/knapen_aot/videos/S_yt-qHUewJuLW4o_19.mp4	0.0	106.77691197395325	0.10011911392211914
10	37.558006048202515	fix_pre	0		120	9.0	2.5	/experiments/knapen_aot/videos/S_yt-YZO4_2yJLWE_1447.mp4	0.0	106.87703108787537	0.9998738765716553
10	38.55787992477417	movie	1		295	9.0	2.5	/experiments/knapen_aot/videos/S_yt-YZO4_2yJLWE_1447.mp4	0.0	107.87690496444702	2.5000500679016113
10	41.05792999267578	fix_post	2		12	9.0	2.5	/experiments/knapen_aot/videos/S_yt-YZO4_2yJLWE_1447.mp4	0.0	110.37695503234863	0.10004901885986328
11	41.157979011535645	fix_pre	0		120	10.0	2.5	blank	1.0	110.4770040512085	0.9998338222503662
11	42.15781283378601	movie	1		244	10.0	2.5	blank	1.0	111.47683787345886	2.5001142024993896
11	44.6579270362854	fix_post	2		12	10.0	2.5	blank	1.0	113.97695207595825	0.09999394416809082
12	44.75792098045349	fix_pre	0		120	11.0	2.5	/experiments/knapen_aot/videos/S_yt-GpVFUM8K0yE_68.mp4	0.0	114.07694602012634	0.9999380111694336
12	45.757858991622925	movie	1		300	11.0	2.5	/experiments/knapen_aot/videos/S_yt-GpVFUM8K0yE_68.mp4	0.0	115.07688403129578	2.500016927719116
12	48.25787591934204	fix_post	2		12	11.0	2.5	/experiments/knapen_aot/videos/S_yt-GpVFUM8K0yE_68.mp4	0.0	117.57690095901489	0.10002899169921875
13	48.35790491104126	fix_pre	0		120	12.0	2.5	/experiments/knapen_aot/videos/S_yt-Hs5HF3mTQ7A_9.mp4	0.0	117.67692995071411	0.9999821186065674
13	49.35788702964783	movie	1		300	12.0	2.5	/experiments/knapen_aot/videos/S_yt-Hs5HF3mTQ7A_9.mp4	0.0	118.67691206932068	2.499941825866699
13	51.857828855514526	fix_post	2		12	12.0	2.5	/experiments/knapen_aot/videos/S_yt-Hs5HF3mTQ7A_9.mp4	0.0	121.17685389518738	0.1004781723022461
14	51.95830702781677	fix_pre	0		120	13.0	2.5	/experiments/knapen_aot/videos/S_yt-ZmoUDsP2y40_8.mp4	0.0	121.27733206748962	0.9995098114013672
14	52.95781683921814	movie	1		298	13.0	2.5	/experiments/knapen_aot/videos/S_yt-ZmoUDsP2y40_8.mp4	0.0	122.27684187889099	2.5000431537628174
14	55.45785999298096	fix_post	2		12	13.0	2.5	/experiments/knapen_aot/videos/S_yt-ZmoUDsP2y40_8.mp4	0.0	124.77688503265381	0.09996700286865234
15	55.55782699584961	fix_pre	0		120	14.0	2.5	blank	1.0	124.87685203552246	0.9999868869781494
15	56.55781388282776	movie	1		300	14.0	2.5	blank	1.0	125.87683892250061	2.5000040531158447
15	59.0578179359436	fix_post	2		12	14.0	2.5	blank	1.0	128.37684297561646	0.09999394416809082
16	59.157811880111694	fix_pre	0		120	15.0	2.5	blank	1.0	128.47683691978455	0.9999690055847168
16	60.15778088569641	movie	1		187	15.0	2.5	blank	1.0	129.47680592536926	2.5000221729278564
16	62.65780305862427	fix_post	2		12	15.0	2.5	blank	1.0	131.97682809829712	0.10039997100830078
17	62.75820302963257	fix_pre	0		120	16.0	2.5	/experiments/knapen_aot/videos/S_yt-H2y1th4WaWU_51.mp4	0.0	132.07722806930542	0.9995670318603516
17	63.75777006149292	movie	1		291	16.0	2.5	/experiments/knapen_aot/videos/S_yt-H2y1th4WaWU_51.mp4	0.0	133.07679510116577	2.5000059604644775
17	66.2577760219574	fix_post	2		12	16.0	2.5	/experiments/knapen_aot/videos/S_yt-H2y1th4WaWU_51.mp4	0.0	135.57680106163025	0.09997081756591797
18	66.35774683952332	fix_pre	0		120	17.0	2.5	/experiments/knapen_aot/videos/S_production_ID_4820331.mp4	0.0	135.67677187919617	1.0000450611114502
18	67.35779190063477	movie	1		160	17.0	2.5	/experiments/knapen_aot/videos/S_production_ID_4820331.mp4	0.0	136.67681694030762	2.4999871253967285
18	69.8577790260315	fix_post	2		12	17.0	2.5	/experiments/knapen_aot/videos/S_production_ID_4820331.mp4	0.0	139.17680406570435	0.09994697570800781
19	69.9577260017395	fix_pre	0		120	18.0	2.5	blank	1.0	139.27675104141235	0.9999959468841553
19	70.95772194862366	movie	1		300	18.0	2.5	blank	1.0	140.2767469882965	2.5000650882720947
19	73.45778703689575	fix_post	2		12	18.0	2.5	blank	1.0	142.7768120765686	0.10003495216369629
20	73.55782198905945	fix_pre	0		120	19.0	2.5	/experiments/knapen_aot/videos/S_yt-fAWPQRcrXl0_38.mp4	0.0	142.8768470287323	1.0000429153442383
20	74.55786490440369	movie	1		223	19.0	2.5	/experiments/knapen_aot/videos/S_yt-fAWPQRcrXl0_38.mp4	0.0	143.87688994407654	2.4999661445617676
20	77.05783104896545	fix_post	2		12	19.0	2.5	/experiments/knapen_aot/videos/S_yt-fAWPQRcrXl0_38.mp4	0.0	146.3768560886383	0.10035300254821777
21	77.15818405151367	fix_pre	0		120	20.0	2.5	blank	1.0	146.47720909118652	0.9995529651641846
21	78.15773701667786	movie	1		300	20.0	2.5	blank	1.0	147.4767620563507	2.499971866607666
21	80.65770888328552	fix_post	2		12	20.0	2.5	blank	1.0	149.97673392295837	0.10005402565002441
22	80.75776290893555	fix_pre	0		120	21.0	2.5	/experiments/knapen_aot/videos/S_yt-A-RhzHTz38g_21.mp4	0.0	150.0767879486084	0.9999959468841553
22	81.7577588558197	movie	1		295	21.0	2.5	/experiments/knapen_aot/videos/S_yt-A-RhzHTz38g_21.mp4	0.0	151.07678389549255	2.4999840259552
22	84.2577428817749	fix_post	2		12	21.0	2.5	/experiments/knapen_aot/videos/S_yt-A-RhzHTz38g_21.mp4	0.0	153.57676792144775	0.09990501403808594
23	84.35764789581299	fix_pre	0		120	22.0	2.5	blank	1.0	153.67667293548584	1.000162124633789
23	85.35781002044678	movie	1		300	22.0	2.5	blank	1.0	154.67683506011963	2.499905824661255
23	87.85771584510803	fix_post	2		12	22.0	2.5	blank	1.0	157.17674088478088	0.10001802444458008
24	87.95773386955261	fix_pre	0		120	23.0	2.5	/experiments/knapen_aot/videos/S_yt-oypn4VCTu6U_279.mp4	0.0	157.27675890922546	0.999953031539917
24	88.95768690109253	movie	1		291	23.0	2.5	/experiments/knapen_aot/videos/S_yt-oypn4VCTu6U_279.mp4	0.0	158.27671194076538	2.5000009536743164
24	91.45768785476685	fix_post	2		12	23.0	2.5	/experiments/knapen_aot/videos/S_yt-oypn4VCTu6U_279.mp4	0.0	160.7767128944397	0.10006904602050781
25	91.55775690078735	fix_pre	0		120	24.0	2.5	/experiments/knapen_aot/videos/S_ILSVRC2015_train_00661004.mp4	0.0	160.8767819404602	0.9999251365661621
25	92.55768203735352	movie	1		294	24.0	2.5	/experiments/knapen_aot/videos/S_ILSVRC2015_train_00661004.mp4	0.0	161.87670707702637	2.4999349117279053
25	95.05761694908142	fix_post	2		12	24.0	2.5	/experiments/knapen_aot/videos/S_ILSVRC2015_train_00661004.mp4	0.0	164.37664198875427	0.10045409202575684
26	95.15807104110718	fix_pre	0		120	25.0	2.5	/experiments/knapen_aot/videos/S_yt-xUPucH7kNAs_178.mp4	0.0	164.47709608078003	0.9999678134918213
26	96.158038854599	movie	1		295	25.0	2.5	/experiments/knapen_aot/videos/S_yt-xUPucH7kNAs_178.mp4	0.0	165.47706389427185	2.4996089935302734
26	98.65764784812927	fix_post	2		12	25.0	2.5	/experiments/knapen_aot/videos/S_yt-xUPucH7kNAs_178.mp4	0.0	167.97667288780212	0.09998321533203125
27	98.7576310634613	fix_pre	0		120	26.0	2.5	blank	1.0	168.07665610313416	1.0000708103179932
27	99.7577018737793	movie	1		300	26.0	2.5	blank	1.0	169.07672691345215	2.499994993209839
27	102.25769686698914	fix_post	2		12	26.0	2.5	blank	1.0	171.576721906662	0.10000109672546387
28	102.3576979637146	fix_pre	0		120	27.0	2.5	/experiments/knapen_aot/videos/S_yt-e5ua5Pj86E4_140.mp4	0.0	171.67672300338745	0.9999010562896729
28	103.35759902000427	movie	1		226	27.0	2.5	/experiments/knapen_aot/videos/S_yt-e5ua5Pj86E4_140.mp4	0.0	172.67662405967712	2.5000479221343994
28	105.85764694213867	fix_post	2		12	27.0	2.5	/experiments/knapen_aot/videos/S_yt-e5ua5Pj86E4_140.mp4	0.0	175.17667198181152	0.09987092018127441
29	105.95751786231995	fix_pre	0		120	28.0	2.5	/experiments/knapen_aot/videos/S_ILSVRC2015_train_00415002.mp4	0.0	175.2765429019928	1.0000832080841064
29	106.95760107040405	movie	1		285	28.0	2.5	/experiments/knapen_aot/videos/S_ILSVRC2015_train_00415002.mp4	0.0	176.2766261100769	2.916740894317627
29	109.87434196472168	fix_post	2		0	28.0	2.5	/experiments/knapen_aot/videos/S_ILSVRC2015_train_00415002.mp4	0.0	179.19336700439453	0.0022530555725097656
30	109.87659502029419	fix_pre	0		82	29.0	2.5	/experiments/knapen_aot/videos/S_yt-a_awONsLFfE_107.mp4	0.0	179.19562005996704	0.6809968948364258
30	110.55759191513062	movie	1		279	29.0	2.5	/experiments/knapen_aot/videos/S_yt-a_awONsLFfE_107.mp4	0.0	179.87661695480347	2.5000200271606445
30	113.05761194229126	fix_post	2		12	29.0	2.5	/experiments/knapen_aot/videos/S_yt-a_awONsLFfE_107.mp4	0.0	182.3766369819641	0.10032010078430176
31	113.15793204307556	fix_pre	0		120	30.0	2.5	/experiments/knapen_aot/videos/S_yt-65cexqxy5lU_35.mp4	0.0	182.4769570827484	0.9999690055847168
31	114.15790104866028	movie	1		295	30.0	2.5	/experiments/knapen_aot/videos/S_yt-65cexqxy5lU_35.mp4	0.0	183.47692608833313	2.4997129440307617
31	116.65761399269104	fix_post	2		12	30.0	2.5	/experiments/knapen_aot/videos/S_yt-65cexqxy5lU_35.mp4	0.0	185.9766390323639	0.10004997253417969
32	116.75766396522522	fix_pre	0		120	31.0	2.5	/experiments/knapen_aot/videos/S_yt-JxqSboqaUPY_5.mp4	0.0	186.07668900489807	1.4765479564666748
32	118.2342119216919	movie	1		226	31.0	2.5	/experiments/knapen_aot/videos/S_yt-JxqSboqaUPY_5.mp4	0.0	187.55323696136475	2.023404121398926
32	120.25761604309082	fix_post	2		12	31.0	2.5	/experiments/knapen_aot/videos/S_yt-JxqSboqaUPY_5.mp4	0.0	189.57664108276367	0.0999748706817627
33	120.35759091377258	fix_pre	0		120	32.0	2.5	/experiments/knapen_aot/videos/S_yt-Y32yFYRmNVU_22.mp4	0.0	189.67661595344543	0.9999561309814453
33	121.35754704475403	movie	1		287	32.0	2.5	/experiments/knapen_aot/videos/S_yt-Y32yFYRmNVU_22.mp4	0.0	190.67657208442688	2.5000410079956055
33	123.85758805274963	fix_post	2		12	32.0	2.5	/experiments/knapen_aot/videos/S_yt-Y32yFYRmNVU_22.mp4	0.0	193.17661309242249	0.09999799728393555
34	123.95758605003357	fix_pre	0		120	33.0	2.5	/experiments/knapen_aot/videos/S_yt-AJypa57HKqM_28.mp4	0.0	193.27661108970642	1.0000319480895996
34	124.95761799812317	movie	1		300	33.0	2.5	/experiments/knapen_aot/videos/S_yt-AJypa57HKqM_28.mp4	0.0	194.27664303779602	2.4999639987945557
34	127.45758199691772	fix_post	2		12	33.0	2.5	/experiments/knapen_aot/videos/S_yt-AJypa57HKqM_28.mp4	0.0	196.77660703659058	0.0999598503112793
35	127.557541847229	fix_pre	0		120	34.0	2.5	/experiments/knapen_aot/videos/S_yt-YWfInCviN1s_126.mp4	0.0	196.87656688690186	1.000025987625122
35	128.55756783485413	movie	1		284	34.0	2.5	/experiments/knapen_aot/videos/S_yt-YWfInCviN1s_126.mp4	0.0	197.87659287452698	2.499988079071045
35	131.05755591392517	fix_post	2		12	34.0	2.5	/experiments/knapen_aot/videos/S_yt-YWfInCviN1s_126.mp4	0.0	200.37658095359802	0.10025906562805176
36	131.15781497955322	fix_pre	0		120	35.0	2.5	/experiments/knapen_aot/videos/S_yt-Uih643A1YtA_110.mp4	0.0	200.47684001922607	0.9998660087585449
36	132.15768098831177	movie	1		286	35.0	2.5	/experiments/knapen_aot/videos/S_yt-Uih643A1YtA_110.mp4	0.0	201.47670602798462	2.4998879432678223
36	134.6575689315796	fix_post	2		12	35.0	2.5	/experiments/knapen_aot/videos/S_yt-Uih643A1YtA_110.mp4	0.0	203.97659397125244	0.10001206398010254
37	134.7575809955597	fix_pre	0		120	36.0	2.5	/experiments/knapen_aot/videos/S_ILSVRC2015_train_00552000.mp4	0.0	204.07660603523254	1.0000619888305664
37	135.75764298439026	movie	1		277	36.0	2.5	/experiments/knapen_aot/videos/S_ILSVRC2015_train_00552000.mp4	0.0	205.0766680240631	2.499886989593506
37	138.25752997398376	fix_post	2		12	36.0	2.5	/experiments/knapen_aot/videos/S_ILSVRC2015_train_00552000.mp4	0.0	207.57655501365662	0.10005903244018555
38	138.35758900642395	fix_pre	0		120	37.0	2.5	/experiments/knapen_aot/videos/S_yt-9PTQ4U4oPUU_243.mp4	0.0	207.6766140460968	1.0000278949737549
38	139.3576169013977	movie	1		287	37.0	2.5	/experiments/knapen_aot/videos/S_yt-9PTQ4U4oPUU_243.mp4	0.0	208.67664194107056	2.4999611377716064
38	141.8575780391693	fix_post	2		12	37.0	2.5	/experiments/knapen_aot/videos/S_yt-9PTQ4U4oPUU_243.mp4	0.0	211.17660307884216	0.09996485710144043
39	141.95754289627075	fix_pre	0		120	38.0	2.5	/experiments/knapen_aot/videos/S_yt-VypeVQ7gJ_k_578.mp4	0.0	211.2765679359436	0.9999151229858398
39	142.9574580192566	movie	1		225	38.0	2.5	/experiments/knapen_aot/videos/S_yt-VypeVQ7gJ_k_578.mp4	0.0	212.27648305892944	2.500046968460083
39	145.45750498771667	fix_post	2		12	38.0	2.5	/experiments/knapen_aot/videos/S_yt-VypeVQ7gJ_k_578.mp4	0.0	214.77653002738953	0.09995889663696289
40	145.55746388435364	fix_pre	0		120	39.0	2.5	/experiments/knapen_aot/videos/S_yt-DpLc4e4bpu0_1467.mp4	0.0	214.8764889240265	1.0000181198120117
40	146.55748200416565	movie	1		287	39.0	2.5	/experiments/knapen_aot/videos/S_yt-DpLc4e4bpu0_1467.mp4	0.0	215.8765070438385	2.5000429153442383
40	149.0575249195099	fix_post	2		12	39.0	2.5	/experiments/knapen_aot/videos/S_yt-DpLc4e4bpu0_1467.mp4	0.0	218.37654995918274	0.1000370979309082
41	149.1575620174408	fix_pre	0		120	40.0	2.5	/experiments/knapen_aot/videos/S_yt-sBdvBO-TPNM_8.mp4	0.0	218.47658705711365	0.9999740123748779
41	150.15753602981567	movie	1		283	40.0	2.5	/experiments/knapen_aot/videos/S_yt-sBdvBO-TPNM_8.mp4	0.0	219.47656106948853	2.4998879432678223
41	152.6574239730835	fix_post	2		12	40.0	2.5	/experiments/knapen_aot/videos/S_yt-sBdvBO-TPNM_8.mp4	0.0	221.97644901275635	0.0999898910522461
42	152.75741386413574	fix_pre	0		120	41.0	2.5	blank	1.0	222.0764389038086	1.000075101852417
42	153.75748896598816	movie	1		167	41.0	2.5	blank	1.0	223.076514005661	2.8000800609588623
42	156.55756902694702	fix_post	2		0	41.0	2.5	blank	1.0	225.87659406661987	0.002599954605102539
43	156.56016898155212	fix_pre	0		96	42.0	2.5	/experiments/knapen_aot/videos/S_yt-4slVHFGPwEs_744.mp4	0.0	225.87919402122498	0.7978498935699463
43	157.35801887512207	movie	1		224	42.0	2.5	/experiments/knapen_aot/videos/S_yt-4slVHFGPwEs_744.mp4	0.0	226.67704391479492	2.532773971557617
43	159.8907928466797	fix_post	2		8	42.0	2.5	/experiments/knapen_aot/videos/S_yt-4slVHFGPwEs_744.mp4	0.0	229.20981788635254	0.06666803359985352
44	159.95746088027954	fix_pre	0		120	43.0	2.5	/experiments/knapen_aot/videos/S_yt-mOQJwaPQbMg_5.mp4	0.0	229.2764859199524	1.475269079208374
44	161.43272995948792	movie	1		125	43.0	2.5	/experiments/knapen_aot/videos/S_yt-mOQJwaPQbMg_5.mp4	0.0	230.75175499916077	2.1913230419158936
44	163.6240530014038	fix_post	2		0	43.0	2.5	/experiments/knapen_aot/videos/S_yt-mOQJwaPQbMg_5.mp4	0.0	232.94307804107666	0.0021588802337646484
45	163.62621188163757	fix_pre	0		112	44.0	2.5	/experiments/knapen_aot/videos/S_yt-q8mfIumbHuo_84.mp4	0.0	232.94523692131042	1.3992609977722168
45	165.0254728794098	movie	1		175	44.0	2.5	/experiments/knapen_aot/videos/S_yt-q8mfIumbHuo_84.mp4	0.0	234.34449791908264	2.0569159984588623
45	167.08238887786865	fix_post	2		9	44.0	2.5	/experiments/knapen_aot/videos/S_yt-q8mfIumbHuo_84.mp4	0.0	236.4014139175415	0.07501816749572754
46	167.15740704536438	fix_pre	0		120	45.0	2.5	/experiments/knapen_aot/videos/S_yt-jovPh9BdlYI_215.mp4	0.0	236.47643208503723	1.000032901763916
46	168.1574399471283	movie	1		281	45.0	2.5	/experiments/knapen_aot/videos/S_yt-jovPh9BdlYI_215.mp4	0.0	237.47646498680115	2.499972105026245
46	170.65741205215454	fix_post	2		12	45.0	2.5	/experiments/knapen_aot/videos/S_yt-jovPh9BdlYI_215.mp4	0.0	239.9764370918274	0.10004091262817383
47	170.75745296478271	fix_pre	0		120	46.0	2.5	/experiments/knapen_aot/videos/S_yt-jsG6vM9Lkoc_318.mp4	0.0	240.07647800445557	0.99981689453125
47	171.75726985931396	movie	1		281	46.0	2.5	/experiments/knapen_aot/videos/S_yt-jsG6vM9Lkoc_318.mp4	0.0	241.07629489898682	2.5001161098480225
47	174.257385969162	fix_post	2		12	46.0	2.5	/experiments/knapen_aot/videos/S_yt-jsG6vM9Lkoc_318.mp4	0.0	243.57641100883484	0.09997296333312988
48	174.35735893249512	fix_pre	0		120	47.0	2.5	/experiments/knapen_aot/videos/S_ILSVRC2015_train_00536000.mp4	0.0	243.67638397216797	1.0000009536743164
48	175.35735988616943	movie	1		292	47.0	2.5	/experiments/knapen_aot/videos/S_ILSVRC2015_train_00536000.mp4	0.0	244.67638492584229	2.5
48	177.85735988616943	fix_post	2		12	47.0	2.5	/experiments/knapen_aot/videos/S_ILSVRC2015_train_00536000.mp4	0.0	247.17638492584229	0.10013508796691895
49	177.95749497413635	fix_pre	0		120	48.0	2.5	/experiments/knapen_aot/videos/S_yt-DfgpLIP0jnk_105.mp4	0.0	247.2765200138092	0.9998278617858887
49	178.95732283592224	movie	1		279	48.0	2.5	/experiments/knapen_aot/videos/S_yt-DfgpLIP0jnk_105.mp4	0.0	248.2763478755951	2.5000481605529785
49	181.45737099647522	fix_post	2		12	48.0	2.5	/experiments/knapen_aot/videos/S_yt-DfgpLIP0jnk_105.mp4	0.0	250.77639603614807	0.0999300479888916
50	181.5573010444641	fix_pre	0		120	49.0	2.5	/experiments/knapen_aot/videos/S_yt-ePxv64kEqa0_177.mp4	0.0	250.87632608413696	1.0003340244293213
50	182.55763506889343	movie	1		287	49.0	2.5	/experiments/knapen_aot/videos/S_yt-ePxv64kEqa0_177.mp4	0.0	251.87666010856628	2.499652862548828
50	185.05728793144226	fix_post	2		12	49.0	2.5	/experiments/knapen_aot/videos/S_yt-ePxv64kEqa0_177.mp4	0.0	254.3763129711151	0.1000680923461914
51	185.15735602378845	fix_pre	0		120	50.0	2.5	/experiments/knapen_aot/videos/S_yt-Pd3_4Z2tbFU_47.mp4	0.0	254.4763810634613	0.999931812286377
51	186.15728783607483	movie	1		229	50.0	2.5	/experiments/knapen_aot/videos/S_yt-Pd3_4Z2tbFU_47.mp4	0.0	255.47631287574768	2.492917060852051
51	188.65020489692688	fix_post	2		13	50.0	2.5	/experiments/knapen_aot/videos/S_yt-Pd3_4Z2tbFU_47.mp4	0.0	257.96922993659973	0.10714507102966309
52	188.75734996795654	fix_pre	0		120	51.0	2.5	/experiments/knapen_aot/videos/S_yt-A1XT1fT1c8w_24.mp4	0.0	258.0763750076294	0.9999599456787109
52	189.75730991363525	movie	1		293	51.0	2.5	/experiments/knapen_aot/videos/S_yt-A1XT1fT1c8w_24.mp4	0.0	259.0763349533081	2.5000319480895996
52	192.25734186172485	fix_post	2		12	51.0	2.5	/experiments/knapen_aot/videos/S_yt-A1XT1fT1c8w_24.mp4	0.0	261.5763669013977	0.10008406639099121
53	192.35742592811584	fix_pre	0		120	52.0	2.5	blank	1.0	261.6764509677887	0.9999239444732666
53	193.3573498725891	movie	1		187	52.0	2.5	blank	1.0	262.67637491226196	2.5003960132598877
53	195.857745885849	fix_post	2		12	52.0	2.5	blank	1.0	265.17677092552185	0.09980201721191406
54	195.9575479030609	fix_pre	0		120	53.0	2.5	/experiments/knapen_aot/videos/S_yt-cILZ_cB3_so_73.mp4	0.0	265.27657294273376	0.999830961227417
54	196.95737886428833	movie	1		294	53.0	2.5	/experiments/knapen_aot/videos/S_yt-cILZ_cB3_so_73.mp4	0.0	266.2764039039612	2.499922037124634
54	199.45730090141296	fix_post	2		12	53.0	2.5	/experiments/knapen_aot/videos/S_yt-cILZ_cB3_so_73.mp4	0.0	268.7763259410858	0.10001611709594727
55	199.5573170185089	fix_pre	0		120	54.0	2.5	/experiments/knapen_aot/videos/S_yt-gbDSSDcRlg4_31.mp4	0.0	268.87634205818176	1.0000598430633545
55	200.55737686157227	movie	1		295	54.0	2.5	/experiments/knapen_aot/videos/S_yt-gbDSSDcRlg4_31.mp4	0.0	269.8764019012451	2.4999160766601562
55	203.05729293823242	fix_post	2		12	54.0	2.5	/experiments/knapen_aot/videos/S_yt-gbDSSDcRlg4_31.mp4	0.0	272.3763179779053	0.10009503364562988
56	203.15738797187805	fix_pre	0		120	55.0	2.5	/experiments/knapen_aot/videos/S_yt-MXCxHM_Ms8A_15.mp4	0.0	272.4764130115509	0.9998610019683838
56	204.15724897384644	movie	1		295	55.0	2.5	/experiments/knapen_aot/videos/S_yt-MXCxHM_Ms8A_15.mp4	0.0	273.4762740135193	2.5000619888305664
56	206.657310962677	fix_post	2		12	55.0	2.5	/experiments/knapen_aot/videos/S_yt-MXCxHM_Ms8A_15.mp4	0.0	275.97633600234985	0.09997987747192383
57	206.75729084014893	fix_pre	0		120	56.0	2.5	/experiments/knapen_aot/videos/S_yt-pB-AcJ71tzA_20.mp4	0.0	276.0763158798218	0.9999840259552002
57	207.75727486610413	movie	1		163	56.0	2.5	/experiments/knapen_aot/videos/S_yt-pB-AcJ71tzA_20.mp4	0.0	277.076299905777	2.4999730587005615
57	210.2572479248047	fix_post	2		12	56.0	2.5	/experiments/knapen_aot/videos/S_yt-pB-AcJ71tzA_20.mp4	0.0	279.57627296447754	0.09998106956481934
58	210.3572289943695	fix_pre	0		120	57.0	2.5	/experiments/knapen_aot/videos/S_yt-DO1vncSoiJk_58.mp4	0.0	279.67625403404236	0.9999730587005615
58	211.35720205307007	movie	1		225	57.0	2.5	/experiments/knapen_aot/videos/S_yt-DO1vncSoiJk_58.mp4	0.0	280.6762270927429	2.500027894973755
58	213.85722994804382	fix_post	2		12	57.0	2.5	/experiments/knapen_aot/videos/S_yt-DO1vncSoiJk_58.mp4	0.0	283.1762549877167	0.1000220775604248
59	213.95725202560425	fix_pre	0		120	58.0	2.5	/experiments/knapen_aot/videos/S_yt-ChAhBD9LrsU_223.mp4	0.0	283.2762770652771	1.0001158714294434
59	214.9573678970337	movie	1		291	58.0	2.5	/experiments/knapen_aot/videos/S_yt-ChAhBD9LrsU_223.mp4	0.0	284.27639293670654	2.5000200271606445
59	217.45738792419434	fix_post	2		12	58.0	2.5	/experiments/knapen_aot/videos/S_yt-ChAhBD9LrsU_223.mp4	0.0	286.7764129638672	0.09983301162719727
60	217.55722093582153	fix_pre	0		120	59.0	2.5	/experiments/knapen_aot/videos/S_yt-P2RwcXMKIbQ_1.mp4	0.0	286.8762459754944	0.9999399185180664
60	218.5571608543396	movie	1		230	59.0	2.5	/experiments/knapen_aot/videos/S_yt-P2RwcXMKIbQ_1.mp4	0.0	287.87618589401245	2.500025987625122
60	221.05718684196472	fix_post	2		12	59.0	2.5	/experiments/knapen_aot/videos/S_yt-P2RwcXMKIbQ_1.mp4	0.0	290.3762118816376	0.10007619857788086
61	221.1572630405426	fix_pre	0		120	60.0	2.5	/experiments/knapen_aot/videos/S_2E67nCgRCGk_75.mp4	0.0	290.47628808021545	0.9998970031738281
61	222.15716004371643	movie	1		230	60.0	2.5	/experiments/knapen_aot/videos/S_2E67nCgRCGk_75.mp4	0.0	291.4761850833893	2.500037908554077
61	224.6571979522705	fix_post	2		12	60.0	2.5	/experiments/knapen_aot/videos/S_2E67nCgRCGk_75.mp4	0.0	293.97622299194336	0.09998393058776855
62	224.75718188285828	fix_pre	0		120	61.0	2.5	/experiments/knapen_aot/videos/S_yt-2U5u3lLJx5M_7.mp4	0.0	294.0762069225311	0.9999761581420898
62	225.75715804100037	movie	1		294	61.0	2.5	/experiments/knapen_aot/videos/S_yt-2U5u3lLJx5M_7.mp4	0.0	295.0761830806732	2.5003809928894043
62	228.25753903388977	fix_post	2		12	61.0	2.5	/experiments/knapen_aot/videos/S_yt-2U5u3lLJx5M_7.mp4	0.0	297.5765640735626	0.09963297843933105
63	228.3571720123291	fix_pre	0		120	62.0	2.5	/experiments/knapen_aot/videos/S_yt-RL1chIcbTPQ_11.mp4	0.0	297.67619705200195	1.000020980834961
63	229.35719299316406	movie	1		229	62.0	2.5	/experiments/knapen_aot/videos/S_yt-RL1chIcbTPQ_11.mp4	0.0	298.6762180328369	2.50004506111145
63	231.8572380542755	fix_post	2		12	62.0	2.5	/experiments/knapen_aot/videos/S_yt-RL1chIcbTPQ_11.mp4	0.0	301.17626309394836	0.09999585151672363
64	231.95723390579224	fix_pre	0		120	63.0	2.5	/experiments/knapen_aot/videos/S_yt-u0N1IsXxLM4_103.mp4	0.0	301.2762589454651	0.9998769760131836
64	232.95711088180542	movie	1		223	63.0	2.5	/experiments/knapen_aot/videos/S_yt-u0N1IsXxLM4_103.mp4	0.0	302.27613592147827	2.499993085861206
64	235.45710396766663	fix_post	2		12	63.0	2.5	/experiments/knapen_aot/videos/S_yt-u0N1IsXxLM4_103.mp4	0.0	304.7761290073395	0.09997892379760742
65	235.55708289146423	fix_pre	0		120	64.0	2.5	/experiments/knapen_aot/videos/S_yt-VyVvEvP6MRM_124.mp4	0.0	304.8761079311371	0.9999871253967285
65	236.55707001686096	movie	1		225	64.0	2.5	/experiments/knapen_aot/videos/S_yt-VyVvEvP6MRM_124.mp4	0.0	305.8760950565338	2.5000998973846436
65	239.0571699142456	fix_post	2		12	64.0	2.5	/experiments/knapen_aot/videos/S_yt-VyVvEvP6MRM_124.mp4	0.0	308.37619495391846	0.10013008117675781
66	239.15729999542236	fix_pre	0		120	65.0	2.5	/experiments/knapen_aot/videos/S_yt-GBqXIFjZf8w_28.mp4	0.0	308.4763250350952	0.9998898506164551
66	240.15718984603882	movie	1		227	65.0	2.5	/experiments/knapen_aot/videos/S_yt-GBqXIFjZf8w_28.mp4	0.0	309.47621488571167	2.499929189682007
66	242.65711903572083	fix_post	2		12	65.0	2.5	/experiments/knapen_aot/videos/S_yt-GBqXIFjZf8w_28.mp4	0.0	311.9761440753937	0.09998202323913574
67	242.75710105895996	fix_pre	0		120	66.0	2.5	blank	1.0	312.0761260986328	1.0000698566436768
67	243.75717091560364	movie	1		187	66.0	2.5	blank	1.0	313.0761959552765	2.4999279975891113
67	246.25709891319275	fix_post	2		12	66.0	2.5	blank	1.0	315.5761239528656	0.10012602806091309
68	246.35722494125366	fix_pre	0		120	67.0	2.5	/experiments/knapen_aot/videos/S_yt-hjqjWlzPRjY_76.mp4	0.0	315.6762499809265	1.4665260314941406
68	247.8237509727478	movie	1		89	67.0	2.5	/experiments/knapen_aot/videos/S_yt-hjqjWlzPRjY_76.mp4	0.0	317.14277601242065	2.0334129333496094
68	249.8571639060974	fix_post	2		12	67.0	2.5	/experiments/knapen_aot/videos/S_yt-hjqjWlzPRjY_76.mp4	0.0	319.17618894577026	0.10027194023132324
69	249.95743584632874	fix_pre	0		120	68.0	2.5	/experiments/knapen_aot/videos/S_yt-bWXohhodbjg_86.mp4	0.0	319.2764608860016	0.9996910095214844
69	250.95712685585022	movie	1		294	68.0	2.5	/experiments/knapen_aot/videos/S_yt-bWXohhodbjg_86.mp4	0.0	320.27615189552307	2.4999160766601562
69	253.45704293251038	fix_post	2		12	68.0	2.5	/experiments/knapen_aot/videos/S_yt-bWXohhodbjg_86.mp4	0.0	322.7760679721832	0.0999751091003418
70	253.55701804161072	fix_pre	0		120	69.0	2.5	/experiments/knapen_aot/videos/S_CHWw361oMSQ_195.mp4	0.0	322.87604308128357	1.00016188621521
70	254.55717992782593	movie	1		291	69.0	2.5	/experiments/knapen_aot/videos/S_CHWw361oMSQ_195.mp4	0.0	323.8762049674988	2.4999470710754395
70	257.05712699890137	fix_post	2		12	69.0	2.5	/experiments/knapen_aot/videos/S_CHWw361oMSQ_195.mp4	0.0	326.3761520385742	0.09998703002929688
71	257.15711402893066	fix_pre	0		120	70.0	2.5	/experiments/knapen_aot/videos/S_yt-cWBQB8CxsVY_69.mp4	0.0	326.4761390686035	0.9999299049377441
71	258.1570439338684	movie	1		227	70.0	2.5	/experiments/knapen_aot/videos/S_yt-cWBQB8CxsVY_69.mp4	0.0	327.47606897354126	2.5000290870666504
71	260.65707302093506	fix_post	2		12	70.0	2.5	/experiments/knapen_aot/videos/S_yt-cWBQB8CxsVY_69.mp4	0.0	329.9760980606079	0.10002994537353516
72	260.7571029663086	fix_pre	0		120	71.0	2.5	/experiments/knapen_aot/videos/S_yt-g_RCws799LQ_52.mp4	0.0	330.07612800598145	0.9999070167541504
72	261.75700998306274	movie	1		152	71.0	2.5	/experiments/knapen_aot/videos/S_yt-g_RCws799LQ_52.mp4	0.0	331.0760350227356	2.5003209114074707
72	264.2573308944702	fix_post	2		12	71.0	2.5	/experiments/knapen_aot/videos/S_yt-g_RCws799LQ_52.mp4	0.0	333.57635593414307	0.10087299346923828
73	264.35820388793945	fix_pre	0		120	72.0	2.5	/experiments/knapen_aot/videos/S_ILSVRC2015_train_00611000.mp4	0.0	333.6772289276123	0.9989070892333984
73	265.35711097717285	movie	1		288	72.0	2.5	/experiments/knapen_aot/videos/S_ILSVRC2015_train_00611000.mp4	0.0	334.6761360168457	2.499897003173828
73	267.8570079803467	fix_post	2		12	72.0	2.5	/experiments/knapen_aot/videos/S_ILSVRC2015_train_00611000.mp4	0.0	337.17603302001953	0.09993791580200195
74	267.9569458961487	fix_pre	0		120	73.0	2.5	/experiments/knapen_aot/videos/S_yt-p-kbRhTdyiQ_31.mp4	0.0	337.27597093582153	1.4772660732269287
74	269.4342119693756	movie	1		5	73.0	2.5	/experiments/knapen_aot/videos/S_yt-p-kbRhTdyiQ_31.mp4	0.0	338.75323700904846	2.2154998779296875
74	271.6497118473053	fix_post	2		0	73.0	2.5	/experiments/knapen_aot/videos/S_yt-p-kbRhTdyiQ_31.mp4	0.0	340.96873688697815	0.002321004867553711
75	271.65203285217285	fix_pre	0		109	74.0	2.5	/experiments/knapen_aot/videos/S_yt-1VTxnf2hZ0w_675.mp4	0.0	340.9710578918457	0.9054501056671143
75	272.55748295783997	movie	1		297	74.0	2.5	/experiments/knapen_aot/videos/S_yt-1VTxnf2hZ0w_675.mp4	0.0	341.8765079975128	2.4994890689849854
75	275.05697202682495	fix_post	2		12	74.0	2.5	/experiments/knapen_aot/videos/S_yt-1VTxnf2hZ0w_675.mp4	0.0	344.3759970664978	0.10005402565002441
76	275.157026052475	fix_pre	0		120	75.0	2.5	/experiments/knapen_aot/videos/S_ILSVRC2015_train_00707000.mp4	0.0	344.4760510921478	1.4665699005126953
76	276.62359595298767	movie	1		229	75.0	2.5	/experiments/knapen_aot/videos/S_ILSVRC2015_train_00707000.mp4	0.0	345.9426209926605	2.0333430767059326
76	278.6569390296936	fix_post	2		12	75.0	2.5	/experiments/knapen_aot/videos/S_ILSVRC2015_train_00707000.mp4	0.0	347.97596406936646	0.10013794898986816
77	278.7570769786835	fix_pre	0		120	76.0	2.5	/experiments/knapen_aot/videos/S_yt-D9iwtEHx8M0_20.mp4	0.0	348.0761020183563	0.9999160766601562
77	279.7569930553436	movie	1		229	76.0	2.5	/experiments/knapen_aot/videos/S_yt-D9iwtEHx8M0_20.mp4	0.0	349.0760180950165	2.4999468326568604
77	282.2569398880005	fix_post	2		12	76.0	2.5	/experiments/knapen_aot/videos/S_yt-D9iwtEHx8M0_20.mp4	0.0	351.57596492767334	0.1008920669555664
78	282.35783195495605	fix_pre	0		120	77.0	2.5	/experiments/knapen_aot/videos/S_yt-2wb0b0pdSxU_59.mp4	0.0	351.6768569946289	0.9991240501403809
78	283.35695600509644	movie	1		173	77.0	2.5	/experiments/knapen_aot/videos/S_yt-2wb0b0pdSxU_59.mp4	0.0	352.6759810447693	3.033289909362793
78	286.39024591445923	fix_post	2		0	77.0	2.5	/experiments/knapen_aot/videos/S_yt-2wb0b0pdSxU_59.mp4	0.0	355.7092709541321	0.0024640560150146484
79	286.39270997047424	fix_pre	0		68	78.0	2.5	/experiments/knapen_aot/videos/S_yt-NqZHX-eOVUA_35.mp4	0.0	355.7117350101471	1.0347380638122559
79	287.4274480342865	movie	1		90	78.0	2.5	/experiments/knapen_aot/videos/S_yt-NqZHX-eOVUA_35.mp4	0.0	356.74647307395935	2.0297110080718994
79	289.4571590423584	fix_post	2		12	78.0	2.5	/experiments/knapen_aot/videos/S_yt-NqZHX-eOVUA_35.mp4	0.0	358.77618408203125	0.1001889705657959
80	289.5573480129242	fix_pre	0		120	79.0	2.5	blank	1.0	358.87637305259705	0.9995808601379395
80	290.55692887306213	movie	1		21	79.0	2.5	blank	1.0	359.875953912735	0.6416499614715576
