trial_nr	onset	event_type	phase	response	nr_frames	movie_index	movie_duration	movie_file	blank	onset_abs	duration
0	0.16652464866638184	stim	0		1203					225.96324825286865	10.033427476882935
0	10.192018747329712	response	0	space						235.98874235153198	
1	10.199952125549316	fix_pre	0		121	0.0	2.5	/experiments/Knapen_AOT/aot_oldvideos/S_yt-loe3Rqs8TEM_46.mp4	0.0	235.9966757297516	1.0184152126312256
1	11.218367338180542	movie	1		293	0.0	2.5	/experiments/Knapen_AOT/aot_oldvideos/S_yt-loe3Rqs8TEM_46.mp4	0.0	237.0150909423828	2.489969491958618
1	13.70833683013916	fix_post	2		12	0.0	2.5	/experiments/Knapen_AOT/aot_oldvideos/S_yt-loe3Rqs8TEM_46.mp4	0.0	239.50506043434143	0.10030603408813477
2	13.808642864227295	fix_pre	0		120	1.0	2.5	/experiments/Knapen_AOT/aot_oldvideos/S_yt-Z_irN6cNiD4_148.mp4	0.0	239.60536646842957	0.9999740123748779
2	14.808616876602173	movie	1		295	1.0	2.5	/experiments/Knapen_AOT/aot_oldvideos/S_yt-Z_irN6cNiD4_148.mp4	0.0	240.60534048080444	2.4997546672821045
2	17.308371543884277	fix_post	2		12	1.0	2.5	/experiments/Knapen_AOT/aot_oldvideos/S_yt-Z_irN6cNiD4_148.mp4	0.0	243.10509514808655	0.10002017021179199
3	17.40839171409607	fix_pre	0		120	2.0	2.5	/experiments/Knapen_AOT/aot_oldvideos/S_yt-t9sowxGR_s4_1.mp4	0.0	243.20511531829834	1.004485845565796
3	18.412877559661865	movie	1		288	2.0	2.5	/experiments/Knapen_AOT/aot_oldvideos/S_yt-t9sowxGR_s4_1.mp4	0.0	244.20960116386414	2.495516538619995
3	20.90839409828186	fix_post	2		12	2.0	2.5	/experiments/Knapen_AOT/aot_oldvideos/S_yt-t9sowxGR_s4_1.mp4	0.0	246.70511770248413	0.10002613067626953
4	21.00842022895813	fix_pre	0		120	3.0	2.5	/experiments/Knapen_AOT/aot_oldvideos/S_yt-6_SgWsPne7M_11.mp4	0.0	246.8051438331604	1.0016627311706543
4	22.010082960128784	movie	1		286	3.0	2.5	/experiments/Knapen_AOT/aot_oldvideos/S_yt-6_SgWsPne7M_11.mp4	0.0	247.80680656433105	2.4983832836151123
4	24.508466243743896	fix_post	2		12	3.0	2.5	/experiments/Knapen_AOT/aot_oldvideos/S_yt-6_SgWsPne7M_11.mp4	0.0	250.30518984794617	0.09996938705444336
5	24.60843563079834	fix_pre	0		120	4.0	2.5	/experiments/Knapen_AOT/aot_oldvideos/S_yt-n12iRXTksXA_65.mp4	0.0	250.4051592350006	0.999993085861206
5	25.608428716659546	movie	1		298	4.0	2.5	/experiments/Knapen_AOT/aot_oldvideos/S_yt-n12iRXTksXA_65.mp4	0.0	251.40515232086182	2.500068187713623
5	28.10849690437317	fix_post	2		12	4.0	2.5	/experiments/Knapen_AOT/aot_oldvideos/S_yt-n12iRXTksXA_65.mp4	0.0	253.90522050857544	0.10002374649047852
6	28.208520650863647	fix_pre	0		120	5.0	2.5	blank	1.0	254.00524425506592	1.0000104904174805
6	29.208531141281128	movie	1		300	5.0	2.5	blank	1.0	255.0052547454834	2.5000627040863037
6	31.70859384536743	fix_post	2		12	5.0	2.5	blank	1.0	257.5053174495697	0.10008955001831055
7	31.808683395385742	fix_pre	0		120	6.0	2.5	/experiments/Knapen_AOT/aot_oldvideos/S_yt-S6N5FyjSFZE_4.mp4	0.0	257.605406999588	1.0001349449157715
7	32.808818340301514	movie	1		293	6.0	2.5	/experiments/Knapen_AOT/aot_oldvideos/S_yt-S6N5FyjSFZE_4.mp4	0.0	258.6055419445038	2.4928462505340576
7	35.30166459083557	fix_post	2		13	6.0	2.5	/experiments/Knapen_AOT/aot_oldvideos/S_yt-S6N5FyjSFZE_4.mp4	0.0	261.09838819503784	0.1069343090057373
8	35.40859889984131	fix_pre	0		120	7.0	2.5	/experiments/Knapen_AOT/aot_oldvideos/S_yt-sZBe-xmTySc_8.mp4	0.0	261.2053225040436	1.0043575763702393
8	36.41295647621155	movie	1		292	7.0	2.5	/experiments/Knapen_AOT/aot_oldvideos/S_yt-sZBe-xmTySc_8.mp4	0.0	262.2096800804138	2.495643138885498
8	38.908599615097046	fix_post	2		12	7.0	2.5	/experiments/Knapen_AOT/aot_oldvideos/S_yt-sZBe-xmTySc_8.mp4	0.0	264.7053232192993	0.10000944137573242
9	39.00860905647278	fix_pre	0		120	8.0	2.5	/experiments/Knapen_AOT/aot_oldvideos/S_yt-qHUewJuLW4o_19.mp4	0.0	264.80533266067505	1.0015788078308105
9	40.01018786430359	movie	1		291	8.0	2.5	/experiments/Knapen_AOT/aot_oldvideos/S_yt-qHUewJuLW4o_19.mp4	0.0	265.80691146850586	2.498448371887207
9	42.508636236190796	fix_post	2		12	8.0	2.5	/experiments/Knapen_AOT/aot_oldvideos/S_yt-qHUewJuLW4o_19.mp4	0.0	268.30535984039307	0.09998917579650879
10	42.608625411987305	fix_pre	0		120	9.0	2.5	/experiments/Knapen_AOT/aot_oldvideos/S_yt-YZO4_2yJLWE_1447.mp4	0.0	268.4053490161896	1.0000100135803223
10	43.60863542556763	movie	1		287	9.0	2.5	/experiments/Knapen_AOT/aot_oldvideos/S_yt-YZO4_2yJLWE_1447.mp4	0.0	269.4053590297699	2.500047445297241
10	46.10868287086487	fix_post	2		12	9.0	2.5	/experiments/Knapen_AOT/aot_oldvideos/S_yt-YZO4_2yJLWE_1447.mp4	0.0	271.90540647506714	0.10006499290466309
11	46.20874786376953	fix_pre	0		120	10.0	2.5	blank	1.0	272.0054714679718	0.9999575614929199
11	47.20870542526245	movie	1		300	10.0	2.5	blank	1.0	273.0054290294647	2.5000147819519043
11	49.708720207214355	fix_post	2		12	10.0	2.5	blank	1.0	275.5054438114166	0.10021734237670898
12	49.808937549591064	fix_pre	0		120	11.0	2.5	/experiments/Knapen_AOT/aot_oldvideos/S_yt-GpVFUM8K0yE_68.mp4	0.0	275.60566115379333	0.9998981952667236
12	50.80883574485779	movie	1		297	11.0	2.5	/experiments/Knapen_AOT/aot_oldvideos/S_yt-GpVFUM8K0yE_68.mp4	0.0	276.60555934906006	2.4999442100524902
12	53.30877995491028	fix_post	2		12	11.0	2.5	/experiments/Knapen_AOT/aot_oldvideos/S_yt-GpVFUM8K0yE_68.mp4	0.0	279.10550355911255	0.10003018379211426
13	53.40881013870239	fix_pre	0		120	12.0	2.5	/experiments/Knapen_AOT/aot_oldvideos/S_yt-Hs5HF3mTQ7A_9.mp4	0.0	279.20553374290466	1.004295825958252
13	54.413105964660645	movie	1		295	12.0	2.5	/experiments/Knapen_AOT/aot_oldvideos/S_yt-Hs5HF3mTQ7A_9.mp4	0.0	280.2098295688629	2.495689868927002
13	56.90879583358765	fix_post	2		12	12.0	2.5	/experiments/Knapen_AOT/aot_oldvideos/S_yt-Hs5HF3mTQ7A_9.mp4	0.0	282.7055194377899	0.10000967979431152
14	57.00880551338196	fix_pre	0		120	13.0	2.5	/experiments/Knapen_AOT/aot_oldvideos/S_yt-ZmoUDsP2y40_8.mp4	0.0	282.80552911758423	1.001549243927002
14	58.01035475730896	movie	1		286	13.0	2.5	/experiments/Knapen_AOT/aot_oldvideos/S_yt-ZmoUDsP2y40_8.mp4	0.0	283.80707836151123	2.498502254486084
14	60.508857011795044	fix_post	2		12	13.0	2.5	/experiments/Knapen_AOT/aot_oldvideos/S_yt-ZmoUDsP2y40_8.mp4	0.0	286.3055806159973	0.09999275207519531
15	60.60884976387024	fix_pre	0		120	14.0	2.5	blank	1.0	286.4055733680725	1.0000019073486328
15	61.60885167121887	movie	1		300	14.0	2.5	blank	1.0	287.40557527542114	2.500032424926758
15	64.10888409614563	fix_post	2		12	14.0	2.5	blank	1.0	289.9056077003479	0.10003852844238281
16	64.20892262458801	fix_pre	0		120	15.0	2.5	blank	1.0	290.0056462287903	1.0000042915344238
16	65.20892691612244	movie	1		300	15.0	2.5	blank	1.0	291.0056505203247	2.4999945163726807
16	67.70892143249512	fix_post	2		12	15.0	2.5	blank	1.0	293.5056450366974	0.10011053085327148
17	67.80903196334839	fix_pre	0		120	16.0	2.5	/experiments/Knapen_AOT/aot_oldvideos/S_yt-H2y1th4WaWU_51.mp4	0.0	293.60575556755066	1.0000014305114746
17	68.80903339385986	movie	1		284	16.0	2.5	/experiments/Knapen_AOT/aot_oldvideos/S_yt-H2y1th4WaWU_51.mp4	0.0	294.60575699806213	2.4928390979766846
17	71.30187249183655	fix_post	2		13	16.0	2.5	/experiments/Knapen_AOT/aot_oldvideos/S_yt-H2y1th4WaWU_51.mp4	0.0	297.0985960960388	0.10710692405700684
18	71.40897941589355	fix_pre	0		120	17.0	2.5	/experiments/Knapen_AOT/aot_oldvideos/S_production_ID_4820331.mp4	0.0	297.2057030200958	1.0110931396484375
18	72.42007255554199	movie	1		161	17.0	2.5	/experiments/Knapen_AOT/aot_oldvideos/S_production_ID_4820331.mp4	0.0	298.21679615974426	2.4889400005340576
18	74.90901255607605	fix_post	2		12	17.0	2.5	/experiments/Knapen_AOT/aot_oldvideos/S_production_ID_4820331.mp4	0.0	300.7057361602783	0.10007929801940918
19	75.00909185409546	fix_pre	0		120	18.0	2.5	blank	1.0	300.80581545829773	0.9999136924743652
19	76.00900554656982	movie	1		300	18.0	2.5	blank	1.0	301.8057291507721	2.50004506111145
19	78.50905060768127	fix_post	2		12	18.0	2.5	blank	1.0	304.30577421188354	0.10000276565551758
20	78.60905337333679	fix_pre	0		120	19.0	2.5	/experiments/Knapen_AOT/aot_oldvideos/S_yt-fAWPQRcrXl0_38.mp4	0.0	304.40577697753906	1.005528450012207
20	79.614581823349	movie	1		284	19.0	2.5	/experiments/Knapen_AOT/aot_oldvideos/S_yt-fAWPQRcrXl0_38.mp4	0.0	305.41130542755127	2.494508981704712
20	82.10909080505371	fix_post	2		12	19.0	2.5	/experiments/Knapen_AOT/aot_oldvideos/S_yt-fAWPQRcrXl0_38.mp4	0.0	307.905814409256	0.10001707077026367
21	82.20910787582397	fix_pre	0		120	20.0	2.5	blank	1.0	308.00583148002625	1.0000689029693604
21	83.20917677879333	movie	1		300	20.0	2.5	blank	1.0	309.0059003829956	2.4999425411224365
21	85.70911931991577	fix_post	2		12	20.0	2.5	blank	1.0	311.50584292411804	0.10000348091125488
22	85.80912280082703	fix_pre	0		120	21.0	2.5	/experiments/Knapen_AOT/aot_oldvideos/S_yt-A-RhzHTz38g_21.mp4	0.0	311.6058464050293	1.000014066696167
22	86.8091368675232	movie	1		280	21.0	2.5	/experiments/Knapen_AOT/aot_oldvideos/S_yt-A-RhzHTz38g_21.mp4	0.0	312.60586047172546	2.5000386238098145
22	89.30917549133301	fix_post	2		12	21.0	2.5	/experiments/Knapen_AOT/aot_oldvideos/S_yt-A-RhzHTz38g_21.mp4	0.0	315.1058990955353	0.10001993179321289
23	89.40919542312622	fix_pre	0		120	22.0	2.5	blank	1.0	315.2059190273285	1.0000205039978027
23	90.40921592712402	movie	1		300	22.0	2.5	blank	1.0	316.2059395313263	2.500019073486328
23	92.90923500061035	fix_post	2		12	22.0	2.5	blank	1.0	318.7059586048126	0.10119175910949707
24	93.01042675971985	fix_pre	0		120	23.0	2.5	/experiments/Knapen_AOT/aot_oldvideos/S_yt-oypn4VCTu6U_279.mp4	0.0	318.8071503639221	1.0000126361846924
24	94.01043939590454	movie	1		278	23.0	2.5	/experiments/Knapen_AOT/aot_oldvideos/S_yt-oypn4VCTu6U_279.mp4	0.0	319.8071630001068	2.4988183975219727
24	96.50925779342651	fix_post	2		12	23.0	2.5	/experiments/Knapen_AOT/aot_oldvideos/S_yt-oypn4VCTu6U_279.mp4	0.0	322.3059813976288	0.10000729560852051
25	96.60926508903503	fix_pre	0		120	24.0	2.5	/experiments/Knapen_AOT/aot_oldvideos/S_ILSVRC2015_train_00661004.mp4	0.0	322.4059886932373	0.9999985694885254
25	97.60926365852356	movie	1		268	24.0	2.5	/experiments/Knapen_AOT/aot_oldvideos/S_ILSVRC2015_train_00661004.mp4	0.0	323.40598726272583	2.5000383853912354
25	100.1093020439148	fix_post	2		12	24.0	2.5	/experiments/Knapen_AOT/aot_oldvideos/S_ILSVRC2015_train_00661004.mp4	0.0	325.90602564811707	0.0999901294708252
26	100.20929217338562	fix_pre	0		120	25.0	2.5	/experiments/Knapen_AOT/aot_oldvideos/S_yt-xUPucH7kNAs_178.mp4	0.0	326.0060157775879	1.008362054824829
26	101.21765422821045	movie	1		271	25.0	2.5	/experiments/Knapen_AOT/aot_oldvideos/S_yt-xUPucH7kNAs_178.mp4	0.0	327.0143778324127	2.491682291030884
26	103.70933651924133	fix_post	2		12	25.0	2.5	/experiments/Knapen_AOT/aot_oldvideos/S_yt-xUPucH7kNAs_178.mp4	0.0	329.5060601234436	0.09997248649597168
27	103.8093090057373	fix_pre	0		120	26.0	2.5	blank	1.0	329.6060326099396	1.0000154972076416
27	104.80932450294495	movie	1		300	26.0	2.5	blank	1.0	330.6060481071472	2.5000367164611816
27	107.30936121940613	fix_post	2		12	26.0	2.5	blank	1.0	333.1060848236084	0.10000944137573242
28	107.40937066078186	fix_pre	0		120	27.0	2.5	/experiments/Knapen_AOT/aot_oldvideos/S_yt-e5ua5Pj86E4_140.mp4	0.0	333.20609426498413	1.0083873271942139
28	108.41775798797607	movie	1		262	27.0	2.5	/experiments/Knapen_AOT/aot_oldvideos/S_yt-e5ua5Pj86E4_140.mp4	0.0	334.21448159217834	2.4916608333587646
28	110.90941882133484	fix_post	2		12	27.0	2.5	/experiments/Knapen_AOT/aot_oldvideos/S_yt-e5ua5Pj86E4_140.mp4	0.0	336.7061424255371	0.10000228881835938
29	111.0094211101532	fix_pre	0		120	28.0	2.5	/experiments/Knapen_AOT/aot_oldvideos/S_ILSVRC2015_train_00415002.mp4	0.0	336.80614471435547	1.0011582374572754
29	112.01057934761047	movie	1		269	28.0	2.5	/experiments/Knapen_AOT/aot_oldvideos/S_ILSVRC2015_train_00415002.mp4	0.0	337.80730295181274	2.4988930225372314
29	114.5094723701477	fix_post	2		12	28.0	2.5	/experiments/Knapen_AOT/aot_oldvideos/S_ILSVRC2015_train_00415002.mp4	0.0	340.30619597435	0.1000220775604248
30	114.60949444770813	fix_pre	0		120	29.0	2.5	/experiments/Knapen_AOT/aot_oldvideos/S_yt-a_awONsLFfE_107.mp4	0.0	340.4062180519104	1.0052824020385742
30	115.6147768497467	movie	1		276	29.0	2.5	/experiments/Knapen_AOT/aot_oldvideos/S_yt-a_awONsLFfE_107.mp4	0.0	341.411500453949	2.486379861831665
30	118.10115671157837	fix_post	2		13	29.0	2.5	/experiments/Knapen_AOT/aot_oldvideos/S_yt-a_awONsLFfE_107.mp4	0.0	343.89788031578064	0.10833096504211426
31	118.20948767662048	fix_pre	0		120	30.0	2.5	/experiments/Knapen_AOT/aot_oldvideos/S_yt-65cexqxy5lU_35.mp4	0.0	344.00621128082275	1.0025913715362549
31	119.21207904815674	movie	1		274	30.0	2.5	/experiments/Knapen_AOT/aot_oldvideos/S_yt-65cexqxy5lU_35.mp4	0.0	345.008802652359	2.4974477291107178
31	121.70952677726746	fix_post	2		12	30.0	2.5	/experiments/Knapen_AOT/aot_oldvideos/S_yt-65cexqxy5lU_35.mp4	0.0	347.5062503814697	0.10001397132873535
32	121.80954074859619	fix_pre	0		120	31.0	2.5	/experiments/Knapen_AOT/aot_oldvideos/S_yt-JxqSboqaUPY_5.mp4	0.0	347.60626435279846	1.0083611011505127
32	122.8179018497467	movie	1		261	31.0	2.5	/experiments/Knapen_AOT/aot_oldvideos/S_yt-JxqSboqaUPY_5.mp4	0.0	348.614625453949	2.4843080043792725
32	125.30220985412598	fix_post	2		13	31.0	2.5	/experiments/Knapen_AOT/aot_oldvideos/S_yt-JxqSboqaUPY_5.mp4	0.0	351.09893345832825	0.10738730430603027
33	125.409597158432	fix_pre	0		120	32.0	2.5	/experiments/Knapen_AOT/aot_oldvideos/S_yt-Y32yFYRmNVU_22.mp4	0.0	351.2063207626343	1.0038840770721436
33	126.41348123550415	movie	1		273	32.0	2.5	/experiments/Knapen_AOT/aot_oldvideos/S_yt-Y32yFYRmNVU_22.mp4	0.0	352.2102048397064	2.496147632598877
33	128.90962886810303	fix_post	2		12	32.0	2.5	/experiments/Knapen_AOT/aot_oldvideos/S_yt-Y32yFYRmNVU_22.mp4	0.0	354.7063524723053	0.09998726844787598
34	129.0096161365509	fix_pre	0		120	33.0	2.5	/experiments/Knapen_AOT/aot_oldvideos/S_yt-AJypa57HKqM_28.mp4	0.0	354.8063397407532	1.0010340213775635
34	130.01065015792847	movie	1		290	33.0	2.5	/experiments/Knapen_AOT/aot_oldvideos/S_yt-AJypa57HKqM_28.mp4	0.0	355.80737376213074	2.4990360736846924
34	132.50968623161316	fix_post	2		12	33.0	2.5	/experiments/Knapen_AOT/aot_oldvideos/S_yt-AJypa57HKqM_28.mp4	0.0	358.30640983581543	0.09996366500854492
35	132.6096498966217	fix_pre	0		120	34.0	2.5	/experiments/Knapen_AOT/aot_oldvideos/S_yt-YWfInCviN1s_126.mp4	0.0	358.406373500824	1.0053045749664307
35	133.61495447158813	movie	1		276	34.0	2.5	/experiments/Knapen_AOT/aot_oldvideos/S_yt-YWfInCviN1s_126.mp4	0.0	359.4116780757904	2.486429452896118
35	136.10138392448425	fix_post	2		13	34.0	2.5	/experiments/Knapen_AOT/aot_oldvideos/S_yt-YWfInCviN1s_126.mp4	0.0	361.8981075286865	0.1083223819732666
36	136.20970630645752	fix_pre	0		120	35.0	2.5	/experiments/Knapen_AOT/aot_oldvideos/S_yt-Uih643A1YtA_110.mp4	0.0	362.0064299106598	1.002387523651123
36	137.21209383010864	movie	1		276	35.0	2.5	/experiments/Knapen_AOT/aot_oldvideos/S_yt-Uih643A1YtA_110.mp4	0.0	363.0088174343109	2.4976680278778076
36	139.70976185798645	fix_post	2		12	35.0	2.5	/experiments/Knapen_AOT/aot_oldvideos/S_yt-Uih643A1YtA_110.mp4	0.0	365.5064854621887	0.09998774528503418
37	139.80974960327148	fix_pre	0		120	36.0	2.5	/experiments/Knapen_AOT/aot_oldvideos/S_ILSVRC2015_train_00552000.mp4	0.0	365.60647320747375	0.9999837875366211
37	140.8097333908081	movie	1		279	36.0	2.5	/experiments/Knapen_AOT/aot_oldvideos/S_ILSVRC2015_train_00552000.mp4	0.0	366.6064569950104	2.4925808906555176
37	143.30231428146362	fix_post	2		13	36.0	2.5	/experiments/Knapen_AOT/aot_oldvideos/S_ILSVRC2015_train_00552000.mp4	0.0	369.0990378856659	0.10747456550598145
38	143.4097888469696	fix_pre	0		120	37.0	2.5	/experiments/Knapen_AOT/aot_oldvideos/S_yt-9PTQ4U4oPUU_243.mp4	0.0	369.2065124511719	1.0037727355957031
38	144.4135615825653	movie	1		281	37.0	2.5	/experiments/Knapen_AOT/aot_oldvideos/S_yt-9PTQ4U4oPUU_243.mp4	0.0	370.2102851867676	2.4962596893310547
38	146.90982127189636	fix_post	2		12	37.0	2.5	/experiments/Knapen_AOT/aot_oldvideos/S_yt-9PTQ4U4oPUU_243.mp4	0.0	372.70654487609863	0.1000063419342041
39	147.00982761383057	fix_pre	0		120	38.0	2.5	/experiments/Knapen_AOT/aot_oldvideos/S_yt-VypeVQ7gJ_k_578.mp4	0.0	372.80655121803284	1.0009989738464355
39	148.010826587677	movie	1		271	38.0	2.5	/experiments/Knapen_AOT/aot_oldvideos/S_yt-VypeVQ7gJ_k_578.mp4	0.0	373.8075501918793	2.499096155166626
39	150.50992274284363	fix_post	2		12	38.0	2.5	/experiments/Knapen_AOT/aot_oldvideos/S_yt-VypeVQ7gJ_k_578.mp4	0.0	376.3066463470459	0.09994220733642578
40	150.60986495018005	fix_pre	0		120	39.0	2.5	/experiments/Knapen_AOT/aot_oldvideos/S_yt-DpLc4e4bpu0_1467.mp4	0.0	376.4065885543823	1.0051159858703613
40	151.61498093605042	movie	1		267	39.0	2.5	/experiments/Knapen_AOT/aot_oldvideos/S_yt-DpLc4e4bpu0_1467.mp4	0.0	377.4117045402527	2.494941473007202
40	154.10992240905762	fix_post	2		12	39.0	2.5	/experiments/Knapen_AOT/aot_oldvideos/S_yt-DpLc4e4bpu0_1467.mp4	0.0	379.9066460132599	0.09996986389160156
41	154.20989227294922	fix_pre	0		120	40.0	2.5	/experiments/Knapen_AOT/aot_oldvideos/S_yt-sBdvBO-TPNM_8.mp4	0.0	380.0066158771515	1.0023479461669922
41	155.2122402191162	movie	1		267	40.0	2.5	/experiments/Knapen_AOT/aot_oldvideos/S_yt-sBdvBO-TPNM_8.mp4	0.0	381.0089638233185	2.497830629348755
41	157.71007084846497	fix_post	2		12	40.0	2.5	/experiments/Knapen_AOT/aot_oldvideos/S_yt-sBdvBO-TPNM_8.mp4	0.0	383.50679445266724	0.0998845100402832
42	157.80995535850525	fix_pre	0		120	41.0	2.5	blank	1.0	383.6066789627075	0.9999959468841553
42	158.8099513053894	movie	1		300	41.0	2.5	blank	1.0	384.6066749095917	2.500051975250244
42	161.31000328063965	fix_post	2		12	41.0	2.5	blank	1.0	387.1067268848419	0.09998488426208496
43	161.40998816490173	fix_pre	0		120	42.0	2.5	/experiments/Knapen_AOT/aot_oldvideos/S_yt-4slVHFGPwEs_744.mp4	0.0	387.206711769104	1.0036628246307373
43	162.41365098953247	movie	1		265	42.0	2.5	/experiments/Knapen_AOT/aot_oldvideos/S_yt-4slVHFGPwEs_744.mp4	0.0	388.21037459373474	2.4963812828063965
43	164.91003227233887	fix_post	2		12	42.0	2.5	/experiments/Knapen_AOT/aot_oldvideos/S_yt-4slVHFGPwEs_744.mp4	0.0	390.70675587654114	0.10086441040039062
44	165.01089668273926	fix_pre	0		120	43.0	2.5	/experiments/Knapen_AOT/aot_oldvideos/S_yt-mOQJwaPQbMg_5.mp4	0.0	390.8076202869415	1.0000977516174316
44	166.0109944343567	movie	1		268	43.0	2.5	/experiments/Knapen_AOT/aot_oldvideos/S_yt-mOQJwaPQbMg_5.mp4	0.0	391.80771803855896	2.499086618423462
44	168.51008105278015	fix_post	2		12	43.0	2.5	/experiments/Knapen_AOT/aot_oldvideos/S_yt-mOQJwaPQbMg_5.mp4	0.0	394.3068046569824	0.10003185272216797
45	168.61011290550232	fix_pre	0		120	44.0	2.5	/experiments/Knapen_AOT/aot_oldvideos/S_yt-q8mfIumbHuo_84.mp4	0.0	394.4068365097046	1.0050406455993652
45	169.61515355110168	movie	1		273	44.0	2.5	/experiments/Knapen_AOT/aot_oldvideos/S_yt-q8mfIumbHuo_84.mp4	0.0	395.41187715530396	2.4866113662719727
45	172.10176491737366	fix_post	2		13	44.0	2.5	/experiments/Knapen_AOT/aot_oldvideos/S_yt-q8mfIumbHuo_84.mp4	0.0	397.8984885215759	0.1083381175994873
46	172.21010303497314	fix_pre	0		120	45.0	2.5	/experiments/Knapen_AOT/aot_oldvideos/S_yt-jovPh9BdlYI_215.mp4	0.0	398.0068266391754	1.002246618270874
46	173.21234965324402	movie	1		273	45.0	2.5	/experiments/Knapen_AOT/aot_oldvideos/S_yt-jovPh9BdlYI_215.mp4	0.0	399.0090732574463	2.4978153705596924
46	175.7101650238037	fix_post	2		12	45.0	2.5	/experiments/Knapen_AOT/aot_oldvideos/S_yt-jovPh9BdlYI_215.mp4	0.0	401.506888628006	0.10001564025878906
47	175.8101806640625	fix_pre	0		120	46.0	2.5	/experiments/Knapen_AOT/aot_oldvideos/S_yt-jsG6vM9Lkoc_318.mp4	0.0	401.60690426826477	0.9999611377716064
47	176.8101418018341	movie	1		267	46.0	2.5	/experiments/Knapen_AOT/aot_oldvideos/S_yt-jsG6vM9Lkoc_318.mp4	0.0	402.6068654060364	2.4923925399780273
47	179.30253434181213	fix_post	2		13	46.0	2.5	/experiments/Knapen_AOT/aot_oldvideos/S_yt-jsG6vM9Lkoc_318.mp4	0.0	405.0992579460144	0.10767436027526855
48	179.4102087020874	fix_pre	0		120	47.0	2.5	/experiments/Knapen_AOT/aot_oldvideos/S_ILSVRC2015_train_00536000.mp4	0.0	405.2069323062897	1.0035676956176758
48	180.41377639770508	movie	1		269	47.0	2.5	/experiments/Knapen_AOT/aot_oldvideos/S_ILSVRC2015_train_00536000.mp4	0.0	406.21050000190735	2.496454954147339
48	182.91023135185242	fix_post	2		12	47.0	2.5	/experiments/Knapen_AOT/aot_oldvideos/S_ILSVRC2015_train_00536000.mp4	0.0	408.7069549560547	0.10076546669006348
49	183.01099681854248	fix_pre	0		120	48.0	2.5	/experiments/Knapen_AOT/aot_oldvideos/S_yt-DfgpLIP0jnk_105.mp4	0.0	408.80772042274475	1.0075891017913818
49	184.01858592033386	movie	1		270	48.0	2.5	/experiments/Knapen_AOT/aot_oldvideos/S_yt-DfgpLIP0jnk_105.mp4	0.0	409.81530952453613	2.4917526245117188
49	186.51033854484558	fix_post	2		12	48.0	2.5	/experiments/Knapen_AOT/aot_oldvideos/S_yt-DfgpLIP0jnk_105.mp4	0.0	412.30706214904785	0.0999302864074707
50	186.61026883125305	fix_pre	0		120	49.0	2.5	/experiments/Knapen_AOT/aot_oldvideos/S_yt-ePxv64kEqa0_177.mp4	0.0	412.4069924354553	1.0048987865447998
50	187.61516761779785	movie	1		261	49.0	2.5	/experiments/Knapen_AOT/aot_oldvideos/S_yt-ePxv64kEqa0_177.mp4	0.0	413.4118912220001	2.4868621826171875
50	190.10202980041504	fix_post	2		13	49.0	2.5	/experiments/Knapen_AOT/aot_oldvideos/S_yt-ePxv64kEqa0_177.mp4	0.0	415.8987534046173	0.10826873779296875
51	190.210298538208	fix_pre	0		120	50.0	2.5	/experiments/Knapen_AOT/aot_oldvideos/S_yt-Pd3_4Z2tbFU_47.mp4	0.0	416.0070221424103	1.002183198928833
51	191.21248173713684	movie	1		268	50.0	2.5	/experiments/Knapen_AOT/aot_oldvideos/S_yt-Pd3_4Z2tbFU_47.mp4	0.0	417.0092053413391	2.4978885650634766
51	193.71037030220032	fix_post	2		12	50.0	2.5	/experiments/Knapen_AOT/aot_oldvideos/S_yt-Pd3_4Z2tbFU_47.mp4	0.0	419.5070939064026	0.09998202323913574
52	193.81035232543945	fix_pre	0		120	51.0	2.5	/experiments/Knapen_AOT/aot_oldvideos/S_yt-A1XT1fT1c8w_24.mp4	0.0	419.6070759296417	0.9999980926513672
52	194.81035041809082	movie	1		272	51.0	2.5	/experiments/Knapen_AOT/aot_oldvideos/S_yt-A1XT1fT1c8w_24.mp4	0.0	420.6070740222931	2.4922866821289062
52	197.30263710021973	fix_post	2		13	51.0	2.5	/experiments/Knapen_AOT/aot_oldvideos/S_yt-A1XT1fT1c8w_24.mp4	0.0	423.099360704422	0.10777497291564941
53	197.41041207313538	fix_pre	0		119	52.0	2.5	blank	1.0	423.20713567733765	0.9916937351226807
53	198.40210580825806	movie	1		283	52.0	2.5	blank	1.0	424.1988294124603	2.508347511291504
53	200.91045331954956	fix_post	2		12	52.0	2.5	blank	1.0	426.70717692375183	0.10071325302124023
54	201.0111665725708	fix_pre	0		119	53.0	2.5	/experiments/Knapen_AOT/aot_oldvideos/S_yt-cILZ_cB3_so_73.mp4	0.0	426.80789017677307	0.9993295669555664
54	202.01049613952637	movie	1		264	53.0	2.5	/experiments/Knapen_AOT/aot_oldvideos/S_yt-cILZ_cB3_so_73.mp4	0.0	427.80721974372864	2.4916741847991943
54	204.50217032432556	fix_post	2		12	53.0	2.5	/experiments/Knapen_AOT/aot_oldvideos/S_yt-cILZ_cB3_so_73.mp4	0.0	430.29889392852783	0.09998774528503418
55	204.6021580696106	fix_pre	0		121	54.0	2.5	/experiments/Knapen_AOT/aot_oldvideos/S_yt-gbDSSDcRlg4_31.mp4	0.0	430.39888167381287	1.0131773948669434
55	205.61533546447754	movie	1		262	54.0	2.5	/experiments/Knapen_AOT/aot_oldvideos/S_yt-gbDSSDcRlg4_31.mp4	0.0	431.4120590686798	2.4868552684783936
55	208.10219073295593	fix_post	2		12	54.0	2.5	/experiments/Knapen_AOT/aot_oldvideos/S_yt-gbDSSDcRlg4_31.mp4	0.0	433.8989143371582	0.10007071495056152
56	208.2022614479065	fix_pre	0		120	55.0	2.5	/experiments/Knapen_AOT/aot_oldvideos/S_yt-MXCxHM_Ms8A_15.mp4	0.0	433.99898505210876	1.0082812309265137
56	209.210542678833	movie	1		255	55.0	2.5	/experiments/Knapen_AOT/aot_oldvideos/S_yt-MXCxHM_Ms8A_15.mp4	0.0	435.0072662830353	2.4916892051696777
56	211.70223188400269	fix_post	2		12	55.0	2.5	/experiments/Knapen_AOT/aot_oldvideos/S_yt-MXCxHM_Ms8A_15.mp4	0.0	437.49895548820496	0.10063791275024414
57	211.80286979675293	fix_pre	0		120	56.0	2.5	/experiments/Knapen_AOT/aot_oldvideos/S_yt-pB-AcJ71tzA_20.mp4	0.0	437.5995934009552	0.9999740123748779
57	212.8028438091278	movie	1		267	56.0	2.5	/experiments/Knapen_AOT/aot_oldvideos/S_yt-pB-AcJ71tzA_20.mp4	0.0	438.5995674133301	2.4994492530822754
57	215.30229306221008	fix_post	2		12	56.0	2.5	/experiments/Knapen_AOT/aot_oldvideos/S_yt-pB-AcJ71tzA_20.mp4	0.0	441.09901666641235	0.10002541542053223
58	215.40231847763062	fix_pre	0		120	57.0	2.5	/experiments/Knapen_AOT/aot_oldvideos/S_yt-DO1vncSoiJk_58.mp4	0.0	441.1990420818329	1.0047190189361572
58	216.40703749656677	movie	1		263	57.0	2.5	/experiments/Knapen_AOT/aot_oldvideos/S_yt-DO1vncSoiJk_58.mp4	0.0	442.20376110076904	2.4953110218048096
58	218.90234851837158	fix_post	2		12	57.0	2.5	/experiments/Knapen_AOT/aot_oldvideos/S_yt-DO1vncSoiJk_58.mp4	0.0	444.69907212257385	0.09997129440307617
59	219.00231981277466	fix_pre	0		120	58.0	2.5	/experiments/Knapen_AOT/aot_oldvideos/S_yt-ChAhBD9LrsU_223.mp4	0.0	444.79904341697693	1.0019736289978027
59	220.00429344177246	movie	1		268	58.0	2.5	/experiments/Knapen_AOT/aot_oldvideos/S_yt-ChAhBD9LrsU_223.mp4	0.0	445.80101704597473	2.498059034347534
59	222.50235247612	fix_post	2		12	58.0	2.5	/experiments/Knapen_AOT/aot_oldvideos/S_yt-ChAhBD9LrsU_223.mp4	0.0	448.29907608032227	0.10001850128173828
60	222.60237097740173	fix_pre	0		120	59.0	2.5	/experiments/Knapen_AOT/aot_oldvideos/S_yt-P2RwcXMKIbQ_1.mp4	0.0	448.399094581604	0.9999799728393555
60	223.6023509502411	movie	1		260	59.0	2.5	/experiments/Knapen_AOT/aot_oldvideos/S_yt-P2RwcXMKIbQ_1.mp4	0.0	449.39907455444336	2.5000429153442383
60	226.10239386558533	fix_post	2		12	59.0	2.5	/experiments/Knapen_AOT/aot_oldvideos/S_yt-P2RwcXMKIbQ_1.mp4	0.0	451.8991174697876	0.1000368595123291
61	226.20243072509766	fix_pre	0		120	60.0	2.5	/experiments/Knapen_AOT/aot_oldvideos/S_2E67nCgRCGk_75.mp4	0.0	451.9991543292999	1.0033178329467773
61	227.20574855804443	movie	1		274	60.0	2.5	/experiments/Knapen_AOT/aot_oldvideos/S_2E67nCgRCGk_75.mp4	0.0	453.0024721622467	2.4966881275177
61	229.70243668556213	fix_post	2		12	60.0	2.5	/experiments/Knapen_AOT/aot_oldvideos/S_2E67nCgRCGk_75.mp4	0.0	455.4991602897644	0.10051655769348145
62	229.80295324325562	fix_pre	0		120	61.0	2.5	/experiments/Knapen_AOT/aot_oldvideos/S_yt-2U5u3lLJx5M_7.mp4	0.0	455.5996768474579	1.000016689300537
62	230.80296993255615	movie	1		264	61.0	2.5	/experiments/Knapen_AOT/aot_oldvideos/S_yt-2U5u3lLJx5M_7.mp4	0.0	456.5996935367584	2.49989652633667
62	233.30286645889282	fix_post	2		12	61.0	2.5	/experiments/Knapen_AOT/aot_oldvideos/S_yt-2U5u3lLJx5M_7.mp4	0.0	459.0995900630951	0.09960699081420898
63	233.40247344970703	fix_pre	0		120	62.0	2.5	/experiments/Knapen_AOT/aot_oldvideos/S_yt-RL1chIcbTPQ_11.mp4	0.0	459.1991970539093	1.0046806335449219
63	234.40715408325195	movie	1		285	62.0	2.5	/experiments/Knapen_AOT/aot_oldvideos/S_yt-RL1chIcbTPQ_11.mp4	0.0	460.2038776874542	2.495424747467041
63	236.902578830719	fix_post	2		12	62.0	2.5	/experiments/Knapen_AOT/aot_oldvideos/S_yt-RL1chIcbTPQ_11.mp4	0.0	462.69930243492126	0.09992098808288574
64	237.00249981880188	fix_pre	0		120	63.0	2.5	/experiments/Knapen_AOT/aot_oldvideos/S_yt-u0N1IsXxLM4_103.mp4	0.0	462.79922342300415	1.001892328262329
64	238.0043921470642	movie	1		278	63.0	2.5	/experiments/Knapen_AOT/aot_oldvideos/S_yt-u0N1IsXxLM4_103.mp4	0.0	463.8011157512665	2.4981679916381836
64	240.5025601387024	fix_post	2		12	63.0	2.5	/experiments/Knapen_AOT/aot_oldvideos/S_yt-u0N1IsXxLM4_103.mp4	0.0	466.29928374290466	0.10003829002380371
65	240.6025984287262	fix_pre	0		120	64.0	2.5	/experiments/Knapen_AOT/aot_oldvideos/S_yt-VyVvEvP6MRM_124.mp4	0.0	466.39932203292847	1.006011724472046
65	241.60861015319824	movie	1		253	64.0	2.5	/experiments/Knapen_AOT/aot_oldvideos/S_yt-VyVvEvP6MRM_124.mp4	0.0	467.4053337574005	2.493997097015381
65	244.10260725021362	fix_post	2		12	64.0	2.5	/experiments/Knapen_AOT/aot_oldvideos/S_yt-VyVvEvP6MRM_124.mp4	0.0	469.8993308544159	0.10002326965332031
66	244.20263051986694	fix_pre	0		120	65.0	2.5	/experiments/Knapen_AOT/aot_oldvideos/S_yt-GBqXIFjZf8w_28.mp4	0.0	469.9993541240692	1.0032296180725098
66	245.20586013793945	movie	1		260	65.0	2.5	/experiments/Knapen_AOT/aot_oldvideos/S_yt-GBqXIFjZf8w_28.mp4	0.0	471.0025837421417	2.4967923164367676
66	247.70265245437622	fix_post	2		11	65.0	2.5	/experiments/Knapen_AOT/aot_oldvideos/S_yt-GBqXIFjZf8w_28.mp4	0.0	473.4993760585785	0.10043549537658691
67	247.8030879497528	fix_pre	0		120	66.0	2.5	blank	1.0	473.5998115539551	0.9995851516723633
67	248.80267310142517	movie	1		300	66.0	2.5	blank	1.0	474.59939670562744	2.500058174133301
67	251.30273127555847	fix_post	2		12	66.0	2.5	blank	1.0	477.09945487976074	0.09999966621398926
68	251.40273094177246	fix_pre	0		120	67.0	2.5	/experiments/Knapen_AOT/aot_oldvideos/S_yt-hjqjWlzPRjY_76.mp4	0.0	477.19945454597473	1.004554033279419
68	252.40728497505188	movie	1		285	67.0	2.5	/experiments/Knapen_AOT/aot_oldvideos/S_yt-hjqjWlzPRjY_76.mp4	0.0	478.20400857925415	2.4954395294189453
68	254.90272450447083	fix_post	2		12	67.0	2.5	/experiments/Knapen_AOT/aot_oldvideos/S_yt-hjqjWlzPRjY_76.mp4	0.0	480.6994481086731	0.10001063346862793
69	255.00273513793945	fix_pre	0		120	68.0	2.5	/experiments/Knapen_AOT/aot_oldvideos/S_yt-bWXohhodbjg_86.mp4	0.0	480.7994587421417	1.0017602443695068
69	256.00449538230896	movie	1		262	68.0	2.5	/experiments/Knapen_AOT/aot_oldvideos/S_yt-bWXohhodbjg_86.mp4	0.0	481.80121898651123	2.498274087905884
69	258.50276947021484	fix_post	2		12	68.0	2.5	/experiments/Knapen_AOT/aot_oldvideos/S_yt-bWXohhodbjg_86.mp4	0.0	484.2994930744171	0.10001039505004883
70	258.6027798652649	fix_pre	0		120	69.0	2.5	/experiments/Knapen_AOT/aot_oldvideos/S_CHWw361oMSQ_195.mp4	0.0	484.39950346946716	1.0083627700805664
70	259.61114263534546	movie	1		274	69.0	2.5	/experiments/Knapen_AOT/aot_oldvideos/S_CHWw361oMSQ_195.mp4	0.0	485.40786623954773	2.4916627407073975
70	262.10280537605286	fix_post	2		12	69.0	2.5	/experiments/Knapen_AOT/aot_oldvideos/S_CHWw361oMSQ_195.mp4	0.0	487.8995289802551	0.10001015663146973
71	262.2028155326843	fix_pre	0		120	70.0	2.5	/experiments/Knapen_AOT/aot_oldvideos/S_yt-cWBQB8CxsVY_69.mp4	0.0	487.9995391368866	1.0030968189239502
71	263.2059123516083	movie	1		255	70.0	2.5	/experiments/Knapen_AOT/aot_oldvideos/S_yt-cWBQB8CxsVY_69.mp4	0.0	489.00263595581055	2.4969356060028076
71	265.7028479576111	fix_post	2		12	70.0	2.5	/experiments/Knapen_AOT/aot_oldvideos/S_yt-cWBQB8CxsVY_69.mp4	0.0	491.49957156181335	0.10034012794494629
72	265.80318808555603	fix_pre	0		120	71.0	2.5	/experiments/Knapen_AOT/aot_oldvideos/S_yt-g_RCws799LQ_52.mp4	0.0	491.5999116897583	1.0080280303955078
72	266.81121611595154	movie	1		256	71.0	2.5	/experiments/Knapen_AOT/aot_oldvideos/S_yt-g_RCws799LQ_52.mp4	0.0	492.6079397201538	2.49187970161438
72	269.3030958175659	fix_post	2		12	71.0	2.5	/experiments/Knapen_AOT/aot_oldvideos/S_yt-g_RCws799LQ_52.mp4	0.0	495.0998194217682	0.09980964660644531
73	269.40290546417236	fix_pre	0		120	72.0	2.5	/experiments/Knapen_AOT/aot_oldvideos/S_ILSVRC2015_train_00611000.mp4	0.0	495.19962906837463	1.0044729709625244
73	270.4073784351349	movie	1		262	72.0	2.5	/experiments/Knapen_AOT/aot_oldvideos/S_ILSVRC2015_train_00611000.mp4	0.0	496.20410203933716	2.4955554008483887
73	272.9029338359833	fix_post	2		12	72.0	2.5	/experiments/Knapen_AOT/aot_oldvideos/S_ILSVRC2015_train_00611000.mp4	0.0	498.69965744018555	0.10005950927734375
74	273.0029933452606	fix_pre	0		120	73.0	2.5	/experiments/Knapen_AOT/aot_oldvideos/S_yt-p-kbRhTdyiQ_31.mp4	0.0	498.7997169494629	1.001638412475586
74	274.0046317577362	movie	1		249	73.0	2.5	/experiments/Knapen_AOT/aot_oldvideos/S_yt-p-kbRhTdyiQ_31.mp4	0.0	499.8013553619385	2.4983975887298584
74	276.50302934646606	fix_post	2		12	73.0	2.5	/experiments/Knapen_AOT/aot_oldvideos/S_yt-p-kbRhTdyiQ_31.mp4	0.0	502.29975295066833	0.09996438026428223
75	276.60299372673035	fix_pre	0		120	74.0	2.5	/experiments/Knapen_AOT/aot_oldvideos/S_yt-1VTxnf2hZ0w_675.mp4	0.0	502.3997173309326	1.0058929920196533
75	277.60888671875	movie	1		251	74.0	2.5	/experiments/Knapen_AOT/aot_oldvideos/S_yt-1VTxnf2hZ0w_675.mp4	0.0	503.40561032295227	2.494131088256836
75	280.10301780700684	fix_post	2		12	74.0	2.5	/experiments/Knapen_AOT/aot_oldvideos/S_yt-1VTxnf2hZ0w_675.mp4	0.0	505.8997414112091	0.10011506080627441
76	280.2031328678131	fix_pre	0		120	75.0	2.5	/experiments/Knapen_AOT/aot_oldvideos/S_ILSVRC2015_train_00707000.mp4	0.0	505.9998564720154	1.0082483291625977
76	281.2113811969757	movie	1		247	75.0	2.5	/experiments/Knapen_AOT/aot_oldvideos/S_ILSVRC2015_train_00707000.mp4	0.0	507.008104801178	2.491675853729248
76	283.70305705070496	fix_post	2		12	75.0	2.5	/experiments/Knapen_AOT/aot_oldvideos/S_ILSVRC2015_train_00707000.mp4	0.0	509.4997806549072	0.10022974014282227
77	283.8032867908478	fix_pre	0		120	76.0	2.5	/experiments/Knapen_AOT/aot_oldvideos/S_yt-D9iwtEHx8M0_20.mp4	0.0	509.60001039505005	0.999985933303833
77	284.8032727241516	movie	1		247	76.0	2.5	/experiments/Knapen_AOT/aot_oldvideos/S_yt-D9iwtEHx8M0_20.mp4	0.0	510.5999963283539	2.499924659729004
77	287.3031973838806	fix_post	2		12	76.0	2.5	/experiments/Knapen_AOT/aot_oldvideos/S_yt-D9iwtEHx8M0_20.mp4	0.0	513.0999209880829	0.09999656677246094
78	287.4031939506531	fix_pre	0		120	77.0	2.5	/experiments/Knapen_AOT/aot_oldvideos/S_yt-2wb0b0pdSxU_59.mp4	0.0	513.1999175548553	1.0043070316314697
78	288.40750098228455	movie	1		255	77.0	2.5	/experiments/Knapen_AOT/aot_oldvideos/S_yt-2wb0b0pdSxU_59.mp4	0.0	514.2042245864868	2.4956583976745605
78	290.9031593799591	fix_post	2		12	77.0	2.5	/experiments/Knapen_AOT/aot_oldvideos/S_yt-2wb0b0pdSxU_59.mp4	0.0	516.6998829841614	0.10001993179321289
79	291.0031793117523	fix_pre	0		120	78.0	2.5	/experiments/Knapen_AOT/aot_oldvideos/S_yt-NqZHX-eOVUA_35.mp4	0.0	516.7999029159546	1.0083367824554443
79	292.01151609420776	movie	1		252	78.0	2.5	/experiments/Knapen_AOT/aot_oldvideos/S_yt-NqZHX-eOVUA_35.mp4	0.0	517.80823969841	2.4916832447052
79	294.50319933891296	fix_post	2		12	78.0	2.5	/experiments/Knapen_AOT/aot_oldvideos/S_yt-NqZHX-eOVUA_35.mp4	0.0	520.2999229431152	0.09996867179870605
80	294.60316801071167	fix_pre	0		120	79.0	2.5	blank	1.0	520.3998916149139	1.0000698566436768
80	295.60323786735535	movie	1		300	79.0	2.5	blank	1.0	521.3999614715576	2.50004243850708
80	298.1032803058624	fix_post	2		12	79.0	2.5	blank	1.0	523.9000039100647	0.09994077682495117
81	298.2032210826874	fix_pre	0		120	80.0	2.5	/experiments/Knapen_AOT/aot_oldvideos/S_flickr-thelastdon-8662706978_3.mp4	0.0	523.9999446868896	1.0083599090576172
81	299.211580991745	movie	1		252	80.0	2.5	/experiments/Knapen_AOT/aot_oldvideos/S_flickr-thelastdon-8662706978_3.mp4	0.0	525.0083045959473	2.491680860519409
81	301.7032618522644	fix_post	2		12	80.0	2.5	/experiments/Knapen_AOT/aot_oldvideos/S_flickr-thelastdon-8662706978_3.mp4	0.0	527.4999854564667	0.10028266906738281
82	301.8035445213318	fix_pre	0		120	81.0	2.5	/experiments/Knapen_AOT/aot_oldvideos/S_yt-e9ttJw0BUuU_40.mp4	0.0	527.6002681255341	0.9999611377716064
82	302.8035056591034	movie	1		256	81.0	2.5	/experiments/Knapen_AOT/aot_oldvideos/S_yt-e9ttJw0BUuU_40.mp4	0.0	528.6002292633057	2.499907970428467
82	305.30341362953186	fix_post	2		12	81.0	2.5	/experiments/Knapen_AOT/aot_oldvideos/S_yt-e9ttJw0BUuU_40.mp4	0.0	531.1001372337341	0.09989714622497559
83	305.40331077575684	fix_pre	0		120	82.0	2.5	/experiments/Knapen_AOT/aot_oldvideos/S_yt-Z1ozMh4szTk_13.mp4	0.0	531.2000343799591	1.0083649158477783
83	306.4116756916046	movie	1		251	82.0	2.5	/experiments/Knapen_AOT/aot_oldvideos/S_yt-Z1ozMh4szTk_13.mp4	0.0	532.2083992958069	2.4917099475860596
83	308.9033856391907	fix_post	2		12	82.0	2.5	/experiments/Knapen_AOT/aot_oldvideos/S_yt-Z1ozMh4szTk_13.mp4	0.0	534.700109243393	0.09998679161071777
84	309.0033724308014	fix_pre	0		120	83.0	2.5	/experiments/Knapen_AOT/aot_oldvideos/S_yt-ihCTIoE7qsk_730.mp4	0.0	534.8000960350037	1.0084550380706787
84	310.01182746887207	movie	1		253	83.0	2.5	/experiments/Knapen_AOT/aot_oldvideos/S_yt-ihCTIoE7qsk_730.mp4	0.0	535.8085510730743	2.49293851852417
84	312.50476598739624	fix_post	2		12	83.0	2.5	/experiments/Knapen_AOT/aot_oldvideos/S_yt-ihCTIoE7qsk_730.mp4	0.0	538.3014895915985	0.09863138198852539
85	312.60339736938477	fix_pre	0		120	84.0	2.5	blank	1.0	538.400120973587	1.0001044273376465
85	313.6035017967224	movie	1		300	84.0	2.5	blank	1.0	539.4002254009247	2.499929904937744
85	316.10343170166016	fix_post	2		12	84.0	2.5	blank	1.0	541.9001553058624	0.10003161430358887
86	316.20346331596375	fix_pre	0		120	85.0	2.5	/experiments/Knapen_AOT/aot_oldvideos/S_yt-PQYnj2BR17I_16.mp4	0.0	542.000186920166	1.0083603858947754
86	317.2118237018585	movie	1		260	85.0	2.5	/experiments/Knapen_AOT/aot_oldvideos/S_yt-PQYnj2BR17I_16.mp4	0.0	543.0085473060608	2.4916579723358154
86	319.70348167419434	fix_post	2		12	85.0	2.5	/experiments/Knapen_AOT/aot_oldvideos/S_yt-PQYnj2BR17I_16.mp4	0.0	545.5002052783966	0.10012483596801758
87	319.80360651016235	fix_pre	0		120	86.0	2.5	/experiments/Knapen_AOT/aot_oldvideos/S_yt-be6x_357tjE_41.mp4	0.0	545.6003301143646	1.008230209350586
87	320.81183671951294	movie	1		254	86.0	2.5	/experiments/Knapen_AOT/aot_oldvideos/S_yt-be6x_357tjE_41.mp4	0.0	546.6085603237152	2.491676092147827
87	323.30351281166077	fix_post	2		12	86.0	2.5	/experiments/Knapen_AOT/aot_oldvideos/S_yt-be6x_357tjE_41.mp4	0.0	549.100236415863	0.10007643699645996
88	323.4035892486572	fix_pre	0		120	87.0	2.5	/experiments/Knapen_AOT/aot_oldvideos/S_ILSVRC2015_train_00416000.mp4	0.0	549.2003128528595	1.0042130947113037
88	324.40780234336853	movie	1		262	87.0	2.5	/experiments/Knapen_AOT/aot_oldvideos/S_ILSVRC2015_train_00416000.mp4	0.0	550.2045259475708	2.495756149291992
88	326.9035584926605	fix_post	2		12	87.0	2.5	/experiments/Knapen_AOT/aot_oldvideos/S_ILSVRC2015_train_00416000.mp4	0.0	552.7002820968628	0.09997987747192383
89	327.00353837013245	fix_pre	0		120	88.0	2.5	/experiments/Knapen_AOT/aot_oldvideos/S_yt-gbDSSDcRlg4_19.mp4	0.0	552.8002619743347	1.001455545425415
89	328.00499391555786	movie	1		262	88.0	2.5	/experiments/Knapen_AOT/aot_oldvideos/S_yt-gbDSSDcRlg4_19.mp4	0.0	553.8017175197601	2.4986214637756348
89	330.5036153793335	fix_post	2		12	88.0	2.5	/experiments/Knapen_AOT/aot_oldvideos/S_yt-gbDSSDcRlg4_19.mp4	0.0	556.3003389835358	0.1000523567199707
90	330.60366773605347	fix_pre	0		120	89.0	2.5	/experiments/Knapen_AOT/aot_oldvideos/S_yt-PDNWrJ2bZ6I_79.mp4	0.0	556.4003913402557	1.0082955360412598
90	331.6119632720947	movie	1		252	89.0	2.5	/experiments/Knapen_AOT/aot_oldvideos/S_yt-PDNWrJ2bZ6I_79.mp4	0.0	557.408686876297	2.4916677474975586
90	334.1036310195923	fix_post	2		12	89.0	2.5	/experiments/Knapen_AOT/aot_oldvideos/S_yt-PDNWrJ2bZ6I_79.mp4	0.0	559.9003546237946	0.10003256797790527
91	334.2036635875702	fix_pre	0		120	90.0	2.5	/experiments/Knapen_AOT/aot_oldvideos/S_yt-iCGU1R75BZo_52.mp4	0.0	560.0003871917725	1.0027270317077637
91	335.20639061927795	movie	1		241	90.0	2.5	/experiments/Knapen_AOT/aot_oldvideos/S_yt-iCGU1R75BZo_52.mp4	0.0	561.0031142234802	2.497296094894409
91	337.70368671417236	fix_post	2		12	90.0	2.5	/experiments/Knapen_AOT/aot_oldvideos/S_yt-iCGU1R75BZo_52.mp4	0.0	563.5004103183746	0.10004353523254395
92	337.8037302494049	fix_pre	0		120	91.0	2.5	blank	1.0	563.6004538536072	1.000002384185791
92	338.8037326335907	movie	1		300	91.0	2.5	blank	1.0	564.600456237793	2.4999849796295166
92	341.3037176132202	fix_post	2		12	91.0	2.5	blank	1.0	567.1004412174225	0.10002279281616211
93	341.4037404060364	fix_pre	0		120	92.0	2.5	/experiments/Knapen_AOT/aot_oldvideos/S_ILSVRC2015_train_00768002.mp4	0.0	567.2004640102386	1.0083332061767578
93	342.41207361221313	movie	1		267	92.0	2.5	/experiments/Knapen_AOT/aot_oldvideos/S_ILSVRC2015_train_00768002.mp4	0.0	568.2087972164154	2.4917521476745605
93	344.9038257598877	fix_post	2		12	92.0	2.5	/experiments/Knapen_AOT/aot_oldvideos/S_ILSVRC2015_train_00768002.mp4	0.0	570.70054936409	0.09997081756591797
94	345.0037965774536	fix_pre	0		120	93.0	2.5	/experiments/Knapen_AOT/aot_oldvideos/S_yt-cAFx29wS_xo_130.mp4	0.0	570.8005201816559	1.001277208328247
94	346.00507378578186	movie	1		258	93.0	2.5	/experiments/Knapen_AOT/aot_oldvideos/S_yt-cAFx29wS_xo_130.mp4	0.0	571.8017973899841	2.499957799911499
94	348.50503158569336	fix_post	2		11	93.0	2.5	/experiments/Knapen_AOT/aot_oldvideos/S_yt-cAFx29wS_xo_130.mp4	0.0	574.3017551898956	0.09882712364196777
95	348.6038587093353	fix_pre	0		120	94.0	2.5	/experiments/Knapen_AOT/aot_oldvideos/S_yt-58F4cMRhSw8_69.mp4	0.0	574.4005823135376	1.0054268836975098
95	349.60928559303284	movie	1		257	94.0	2.5	/experiments/Knapen_AOT/aot_oldvideos/S_yt-58F4cMRhSw8_69.mp4	0.0	575.4060091972351	2.494574546813965
95	352.1038601398468	fix_post	2		12	94.0	2.5	/experiments/Knapen_AOT/aot_oldvideos/S_yt-58F4cMRhSw8_69.mp4	0.0	577.9005837440491	0.09999871253967285
96	352.2038588523865	fix_pre	0		120	95.0	2.5	/experiments/Knapen_AOT/aot_oldvideos/S_yt-5IEO9Gn5fZ4_59.mp4	0.0	578.0005824565887	1.0026566982269287
96	353.2065155506134	movie	1		258	95.0	2.5	/experiments/Knapen_AOT/aot_oldvideos/S_yt-5IEO9Gn5fZ4_59.mp4	0.0	579.0032391548157	2.497389078140259
96	355.70390462875366	fix_post	2		12	95.0	2.5	/experiments/Knapen_AOT/aot_oldvideos/S_yt-5IEO9Gn5fZ4_59.mp4	0.0	581.5006282329559	0.0999913215637207
97	355.8038959503174	fix_pre	0		120	96.0	2.5	blank	1.0	581.6006195545197	1.00001859664917
97	356.80391454696655	movie	1		300	96.0	2.5	blank	1.0	582.6006381511688	2.500014066696167
97	359.3039286136627	fix_post	2		12	96.0	2.5	blank	1.0	585.100652217865	0.10009217262268066
98	359.4040207862854	fix_pre	0		120	97.0	2.5	/experiments/Knapen_AOT/aot_oldvideos/S_yt-gCKmHV5tdSk_59.mp4	0.0	585.2007443904877	1.0038981437683105
98	360.4079189300537	movie	1		258	97.0	2.5	/experiments/Knapen_AOT/aot_oldvideos/S_yt-gCKmHV5tdSk_59.mp4	0.0	586.204642534256	2.4960904121398926
98	362.9040093421936	fix_post	2		12	97.0	2.5	/experiments/Knapen_AOT/aot_oldvideos/S_yt-gCKmHV5tdSk_59.mp4	0.0	588.7007329463959	0.10002613067626953
99	363.0040354728699	fix_pre	0		120	98.0	2.5	/experiments/Knapen_AOT/aot_oldvideos/S_yt-16eN45838LU_255.mp4	0.0	588.8007590770721	1.001145839691162
99	364.00518131256104	movie	1		257	98.0	2.5	/experiments/Knapen_AOT/aot_oldvideos/S_yt-16eN45838LU_255.mp4	0.0	589.8019049167633	2.4999120235443115
99	366.50509333610535	fix_post	2		12	98.0	2.5	/experiments/Knapen_AOT/aot_oldvideos/S_yt-16eN45838LU_255.mp4	0.0	592.3018169403076	0.09899353981018066
100	366.6040868759155	fix_pre	0		120	99.0	2.5	/experiments/Knapen_AOT/aot_oldvideos/S_yt-NVYfkMFUxMk_466.mp4	0.0	592.4008104801178	1.0082881450653076
100	367.61237502098083	movie	1		268	99.0	2.5	/experiments/Knapen_AOT/aot_oldvideos/S_yt-NVYfkMFUxMk_466.mp4	0.0	593.4090986251831	2.4917726516723633
100	370.1041476726532	fix_post	2		12	99.0	2.5	/experiments/Knapen_AOT/aot_oldvideos/S_yt-NVYfkMFUxMk_466.mp4	0.0	595.9008712768555	0.09992742538452148
101	370.2040750980377	fix_pre	0		120	100.0	2.5	/experiments/Knapen_AOT/aot_oldvideos/S_yt-iuqdW5OLSzc_6.mp4	0.0	596.00079870224	1.008352518081665
101	371.2124276161194	movie	1		266	100.0	2.5	/experiments/Knapen_AOT/aot_oldvideos/S_yt-iuqdW5OLSzc_6.mp4	0.0	597.0091512203217	2.491687297821045
101	373.70411491394043	fix_post	2		12	100.0	2.5	/experiments/Knapen_AOT/aot_oldvideos/S_yt-iuqdW5OLSzc_6.mp4	0.0	599.5008385181427	0.10000181198120117
102	373.80411672592163	fix_pre	0		120	101.0	2.5	/experiments/Knapen_AOT/aot_oldvideos/S_yt-T2CzKcU8pHo_17.mp4	0.0	599.6008403301239	0.9999735355377197
102	374.80409026145935	movie	1		263	101.0	2.5	/experiments/Knapen_AOT/aot_oldvideos/S_yt-T2CzKcU8pHo_17.mp4	0.0	600.6008138656616	2.500046491622925
102	377.3041367530823	fix_post	2		12	101.0	2.5	/experiments/Knapen_AOT/aot_oldvideos/S_yt-T2CzKcU8pHo_17.mp4	0.0	603.1008603572845	0.10005617141723633
103	377.4041929244995	fix_pre	0		120	102.0	2.5	/experiments/Knapen_AOT/aot_oldvideos/S_yt-z8fEOmzDlD4_21.mp4	0.0	603.2009165287018	1.008296251296997
103	378.4124891757965	movie	1		278	102.0	2.5	/experiments/Knapen_AOT/aot_oldvideos/S_yt-z8fEOmzDlD4_21.mp4	0.0	604.2092127799988	2.4916958808898926
103	380.9041850566864	fix_post	2		12	102.0	2.5	/experiments/Knapen_AOT/aot_oldvideos/S_yt-z8fEOmzDlD4_21.mp4	0.0	606.7009086608887	0.10108137130737305
104	381.0052664279938	fix_pre	0		120	103.0	2.5	/experiments/Knapen_AOT/aot_oldvideos/S_yt-T2Izta7lYZg_111.mp4	0.0	606.801990032196	1.0000247955322266
104	382.005291223526	movie	1		272	103.0	2.5	/experiments/Knapen_AOT/aot_oldvideos/S_yt-T2Izta7lYZg_111.mp4	0.0	607.8020148277283	2.498969793319702
104	384.5042610168457	fix_post	2		12	103.0	2.5	/experiments/Knapen_AOT/aot_oldvideos/S_yt-T2Izta7lYZg_111.mp4	0.0	610.300984621048	0.10000467300415039
105	384.60426568984985	fix_pre	0		120	104.0	2.5	/experiments/Knapen_AOT/aot_oldvideos/S_yt-Y-8d31A9JXg_12.mp4	0.0	610.4009892940521	1.0052106380462646
105	385.6094763278961	movie	1		268	104.0	2.5	/experiments/Knapen_AOT/aot_oldvideos/S_yt-Y-8d31A9JXg_12.mp4	0.0	611.4061999320984	2.4947988986968994
105	388.104275226593	fix_post	2		12	104.0	2.5	/experiments/Knapen_AOT/aot_oldvideos/S_yt-Y-8d31A9JXg_12.mp4	0.0	613.9009988307953	0.10001087188720703
107	388.2042860984802	stim	0		1716					614.0010097026825	14.300198316574097
