trial_nr	onset	event_type	phase	response	nr_frames	movie_index	movie_duration	movie_file	blank	onset_abs	duration
0	0.21381783485412598	stim	0		1291					123.43235087394714	10.766813039779663
0	10.972585916519165	response	0	space						134.19111895561218	
1	10.980630874633789	fix_pre	0		121	0.0	2.5	/experiments/knapen_AOT/aot_oldvideos/S_yt-loe3Rqs8TEM_46.mp4	0.0	134.1991639137268	1.0249719619750977
1	12.005602836608887	movie	1		266	0.0	2.5	/experiments/knapen_AOT/aot_oldvideos/S_yt-loe3Rqs8TEM_46.mp4	0.0	135.2241358757019	2.4833309650421143
1	14.488933801651001	fix_post	2		12	0.0	2.5	/experiments/knapen_AOT/aot_oldvideos/S_yt-loe3Rqs8TEM_46.mp4	0.0	137.70746684074402	0.10002517700195312
2	14.588958978652954	fix_pre	0		120	1.0	2.5	/experiments/knapen_AOT/aot_oldvideos/S_yt-Z_irN6cNiD4_148.mp4	0.0	137.80749201774597	0.9999988079071045
2	15.588957786560059	movie	1		271	1.0	2.5	/experiments/knapen_AOT/aot_oldvideos/S_yt-Z_irN6cNiD4_148.mp4	0.0	138.80749082565308	2.5000791549682617
2	18.08903694152832	fix_post	2		12	1.0	2.5	/experiments/knapen_AOT/aot_oldvideos/S_yt-Z_irN6cNiD4_148.mp4	0.0	141.30756998062134	0.0999610424041748
3	18.188997983932495	fix_pre	0		120	2.0	2.5	/experiments/knapen_AOT/aot_oldvideos/S_yt-t9sowxGR_s4_1.mp4	0.0	141.4075310230255	0.9999969005584717
3	19.188994884490967	movie	1		198	2.0	2.5	/experiments/knapen_AOT/aot_oldvideos/S_yt-t9sowxGR_s4_1.mp4	0.0	142.40752792358398	2.500051975250244
3	21.68904685974121	fix_post	2		12	2.0	2.5	/experiments/knapen_AOT/aot_oldvideos/S_yt-t9sowxGR_s4_1.mp4	0.0	144.90757989883423	0.10001206398010254
4	21.789058923721313	fix_pre	0		120	3.0	2.5	/experiments/knapen_AOT/aot_oldvideos/S_yt-6_SgWsPne7M_11.mp4	0.0	145.00759196281433	0.9999868869781494
4	22.789045810699463	movie	1		268	3.0	2.5	/experiments/knapen_AOT/aot_oldvideos/S_yt-6_SgWsPne7M_11.mp4	0.0	146.00757884979248	2.500096082687378
4	25.28914189338684	fix_post	2		12	3.0	2.5	/experiments/knapen_AOT/aot_oldvideos/S_yt-6_SgWsPne7M_11.mp4	0.0	148.50767493247986	0.0999290943145752
5	25.389070987701416	fix_pre	0		120	4.0	2.5	/experiments/knapen_AOT/aot_oldvideos/S_yt-n12iRXTksXA_65.mp4	0.0	148.60760402679443	1.0000410079956055
5	26.38911199569702	movie	1		223	4.0	2.5	/experiments/knapen_AOT/aot_oldvideos/S_yt-n12iRXTksXA_65.mp4	0.0	149.60764503479004	2.5500919818878174
5	28.93920397758484	fix_post	2		6	4.0	2.5	/experiments/knapen_AOT/aot_oldvideos/S_yt-n12iRXTksXA_65.mp4	0.0	152.15773701667786	0.05007791519165039
6	28.98928189277649	fix_pre	0		120	5.0	2.5	blank	1.0	152.2078149318695	0.9998300075531006
6	29.98911190032959	movie	1		300	5.0	2.5	blank	1.0	153.2076449394226	2.500075101852417
6	32.48918700218201	fix_post	2		12	5.0	2.5	blank	1.0	155.70772004127502	0.09998798370361328
7	32.58917498588562	fix_pre	0		120	6.0	2.5	/experiments/knapen_AOT/aot_oldvideos/S_yt-S6N5FyjSFZE_4.mp4	0.0	155.80770802497864	1.0000319480895996
7	33.58920693397522	movie	1		268	6.0	2.5	/experiments/knapen_AOT/aot_oldvideos/S_yt-S6N5FyjSFZE_4.mp4	0.0	156.80773997306824	2.5000228881835938
7	36.08922982215881	fix_post	2		12	6.0	2.5	/experiments/knapen_AOT/aot_oldvideos/S_yt-S6N5FyjSFZE_4.mp4	0.0	159.30776286125183	0.1000070571899414
8	36.189236879348755	fix_pre	0		120	7.0	2.5	/experiments/knapen_AOT/aot_oldvideos/S_yt-sZBe-xmTySc_8.mp4	0.0	159.40776991844177	1.000035047531128
8	37.18927192687988	movie	1		271	7.0	2.5	/experiments/knapen_AOT/aot_oldvideos/S_yt-sZBe-xmTySc_8.mp4	0.0	160.4078049659729	2.4999918937683105
8	39.68926382064819	fix_post	2		12	7.0	2.5	/experiments/knapen_AOT/aot_oldvideos/S_yt-sZBe-xmTySc_8.mp4	0.0	162.9077968597412	0.10006117820739746
9	39.78932499885559	fix_pre	0		120	8.0	2.5	/experiments/knapen_AOT/aot_oldvideos/S_yt-qHUewJuLW4o_19.mp4	0.0	163.0078580379486	0.9999668598175049
9	40.789291858673096	movie	1		270	8.0	2.5	/experiments/knapen_AOT/aot_oldvideos/S_yt-qHUewJuLW4o_19.mp4	0.0	164.0078248977661	2.5000391006469727
9	43.28933095932007	fix_post	2		12	8.0	2.5	/experiments/knapen_AOT/aot_oldvideos/S_yt-qHUewJuLW4o_19.mp4	0.0	166.5078639984131	0.0999748706817627
10	43.38930583000183	fix_pre	0		120	9.0	2.5	/experiments/knapen_AOT/aot_oldvideos/S_yt-YZO4_2yJLWE_1447.mp4	0.0	166.60783886909485	1.0000059604644775
10	44.38931179046631	movie	1		273	9.0	2.5	/experiments/knapen_AOT/aot_oldvideos/S_yt-YZO4_2yJLWE_1447.mp4	0.0	167.60784482955933	2.500040054321289
10	46.8893518447876	fix_post	2		12	9.0	2.5	/experiments/knapen_AOT/aot_oldvideos/S_yt-YZO4_2yJLWE_1447.mp4	0.0	170.10788488388062	0.10001492500305176
11	46.98936676979065	fix_pre	0		120	10.0	2.5	blank	1.0	170.20789980888367	1.0000331401824951
11	47.989399909973145	movie	1		300	10.0	2.5	blank	1.0	171.20793294906616	2.500035047531128
11	50.48943495750427	fix_post	2		12	10.0	2.5	blank	1.0	173.7079679965973	0.09995102882385254
12	50.589385986328125	fix_pre	0		120	11.0	2.5	/experiments/knapen_AOT/aot_oldvideos/S_yt-GpVFUM8K0yE_68.mp4	0.0	173.80791902542114	1.000065803527832
12	51.58945178985596	movie	1		274	11.0	2.5	/experiments/knapen_AOT/aot_oldvideos/S_yt-GpVFUM8K0yE_68.mp4	0.0	174.80798482894897	2.5000510215759277
12	54.089502811431885	fix_post	2		12	11.0	2.5	/experiments/knapen_AOT/aot_oldvideos/S_yt-GpVFUM8K0yE_68.mp4	0.0	177.3080358505249	0.09995317459106445
13	54.18945598602295	fix_pre	0		120	12.0	2.5	/experiments/knapen_AOT/aot_oldvideos/S_yt-Hs5HF3mTQ7A_9.mp4	0.0	177.40798902511597	1.000058889389038
13	55.18951487541199	movie	1		275	12.0	2.5	/experiments/knapen_AOT/aot_oldvideos/S_yt-Hs5HF3mTQ7A_9.mp4	0.0	178.408047914505	2.5000369548797607
13	57.68955183029175	fix_post	2		12	12.0	2.5	/experiments/knapen_AOT/aot_oldvideos/S_yt-Hs5HF3mTQ7A_9.mp4	0.0	180.90808486938477	0.09999394416809082
14	57.78954577445984	fix_pre	0		120	13.0	2.5	/experiments/knapen_AOT/aot_oldvideos/S_yt-ZmoUDsP2y40_8.mp4	0.0	181.00807881355286	0.9999890327453613
14	58.7895348072052	movie	1		266	13.0	2.5	/experiments/knapen_AOT/aot_oldvideos/S_yt-ZmoUDsP2y40_8.mp4	0.0	182.00806784629822	2.500044107437134
14	61.289578914642334	fix_post	2		12	13.0	2.5	/experiments/knapen_AOT/aot_oldvideos/S_yt-ZmoUDsP2y40_8.mp4	0.0	184.50811195373535	0.09996485710144043
15	61.389543771743774	fix_pre	0		120	14.0	2.5	blank	1.0	184.6080768108368	1.0000391006469727
15	62.38958287239075	movie	1		299	14.0	2.5	blank	1.0	185.60811591148376	2.500001907348633
15	64.88958477973938	fix_post	2		12	14.0	2.5	blank	1.0	188.1081178188324	0.10007715225219727
16	64.98966193199158	fix_pre	0		120	15.0	2.5	blank	1.0	188.2081949710846	1.0003409385681152
16	65.99000287055969	movie	1		298	15.0	2.5	blank	1.0	189.2085359096527	2.499677896499634
16	68.48968076705933	fix_post	2		12	15.0	2.5	blank	1.0	191.70821380615234	0.09995317459106445
17	68.58963394165039	fix_pre	0		120	16.0	2.5	/experiments/knapen_AOT/aot_oldvideos/S_yt-H2y1th4WaWU_51.mp4	0.0	191.8081669807434	1.0000569820404053
17	69.5896909236908	movie	1		274	16.0	2.5	/experiments/knapen_AOT/aot_oldvideos/S_yt-H2y1th4WaWU_51.mp4	0.0	192.8082239627838	2.5000569820404053
17	72.0897479057312	fix_post	2		12	16.0	2.5	/experiments/knapen_AOT/aot_oldvideos/S_yt-H2y1th4WaWU_51.mp4	0.0	195.30828094482422	0.09996986389160156
18	72.1897177696228	fix_pre	0		120	17.0	2.5	/experiments/knapen_AOT/aot_oldvideos/S_production_ID_4820331.mp4	0.0	195.40825080871582	1.0000030994415283
18	73.18972086906433	movie	1		172	17.0	2.5	/experiments/knapen_AOT/aot_oldvideos/S_production_ID_4820331.mp4	0.0	196.40825390815735	2.5000181198120117
18	75.68973898887634	fix_post	2		12	17.0	2.5	/experiments/knapen_AOT/aot_oldvideos/S_production_ID_4820331.mp4	0.0	198.90827202796936	0.10002493858337402
19	75.78976392745972	fix_pre	0		120	18.0	2.5	blank	1.0	199.00829696655273	1.000025987625122
19	76.78978991508484	movie	1		300	18.0	2.5	blank	1.0	200.00832295417786	2.5000338554382324
19	79.28982377052307	fix_post	2		12	18.0	2.5	blank	1.0	202.5083568096161	0.0999441146850586
20	79.38976788520813	fix_pre	0		120	19.0	2.5	/experiments/knapen_AOT/aot_oldvideos/S_yt-fAWPQRcrXl0_38.mp4	0.0	202.60830092430115	1.000014066696167
20	80.3897819519043	movie	1		281	19.0	2.5	/experiments/knapen_AOT/aot_oldvideos/S_yt-fAWPQRcrXl0_38.mp4	0.0	203.60831499099731	2.5000429153442383
20	82.88982486724854	fix_post	2		12	19.0	2.5	/experiments/knapen_AOT/aot_oldvideos/S_yt-fAWPQRcrXl0_38.mp4	0.0	206.10835790634155	0.10004806518554688
21	82.98987293243408	fix_pre	0		120	20.0	2.5	blank	1.0	206.2084059715271	0.9999680519104004
21	83.98984098434448	movie	1		300	20.0	2.5	blank	1.0	207.2083740234375	2.5000460147857666
21	86.48988699913025	fix_post	2		12	20.0	2.5	blank	1.0	209.70842003822327	0.0999917984008789
22	86.58987879753113	fix_pre	0		120	21.0	2.5	/experiments/knapen_AOT/aot_oldvideos/S_yt-A-RhzHTz38g_21.mp4	0.0	209.80841183662415	1.0000190734863281
22	87.58989787101746	movie	1		281	21.0	2.5	/experiments/knapen_AOT/aot_oldvideos/S_yt-A-RhzHTz38g_21.mp4	0.0	210.80843091011047	2.5000391006469727
22	90.08993697166443	fix_post	2		12	21.0	2.5	/experiments/knapen_AOT/aot_oldvideos/S_yt-A-RhzHTz38g_21.mp4	0.0	213.30847001075745	0.09998893737792969
23	90.18992590904236	fix_pre	0		120	22.0	2.5	blank	1.0	213.40845894813538	1.0000169277191162
23	91.18994283676147	movie	1		300	22.0	2.5	blank	1.0	214.4084758758545	2.5000669956207275
23	93.6900098323822	fix_post	2		12	22.0	2.5	blank	1.0	216.90854287147522	0.09996604919433594
24	93.78997588157654	fix_pre	0		120	23.0	2.5	/experiments/knapen_AOT/aot_oldvideos/S_yt-oypn4VCTu6U_279.mp4	0.0	217.00850892066956	1.0000190734863281
24	94.78999495506287	movie	1		278	23.0	2.5	/experiments/knapen_AOT/aot_oldvideos/S_yt-oypn4VCTu6U_279.mp4	0.0	218.00852799415588	2.500041961669922
24	97.29003691673279	fix_post	2		12	23.0	2.5	/experiments/knapen_AOT/aot_oldvideos/S_yt-oypn4VCTu6U_279.mp4	0.0	220.5085699558258	0.10003399848937988
25	97.39007091522217	fix_pre	0		120	24.0	2.5	/experiments/knapen_AOT/aot_oldvideos/S_ILSVRC2015_train_00661004.mp4	0.0	220.60860395431519	0.9999549388885498
25	98.39002585411072	movie	1		282	24.0	2.5	/experiments/knapen_AOT/aot_oldvideos/S_ILSVRC2015_train_00661004.mp4	0.0	221.60855889320374	2.5000970363616943
25	100.89012289047241	fix_post	2		12	24.0	2.5	/experiments/knapen_AOT/aot_oldvideos/S_ILSVRC2015_train_00661004.mp4	0.0	224.10865592956543	0.10010290145874023
26	100.99022579193115	fix_pre	0		120	25.0	2.5	/experiments/knapen_AOT/aot_oldvideos/S_yt-xUPucH7kNAs_178.mp4	0.0	224.20875883102417	0.9998781681060791
26	101.99010396003723	movie	1		284	25.0	2.5	/experiments/knapen_AOT/aot_oldvideos/S_yt-xUPucH7kNAs_178.mp4	0.0	225.20863699913025	2.500051975250244
26	104.49015593528748	fix_post	2		12	25.0	2.5	/experiments/knapen_AOT/aot_oldvideos/S_yt-xUPucH7kNAs_178.mp4	0.0	227.7086889743805	0.10001087188720703
27	104.59016680717468	fix_pre	0		120	26.0	2.5	blank	1.0	227.8086998462677	1.000128984451294
27	105.59029579162598	movie	1		300	26.0	2.5	blank	1.0	228.808828830719	2.49992299079895
27	108.09021878242493	fix_post	2		12	26.0	2.5	blank	1.0	231.30875182151794	0.09999799728393555
28	108.19021677970886	fix_pre	0		120	27.0	2.5	/experiments/knapen_AOT/aot_oldvideos/S_yt-e5ua5Pj86E4_140.mp4	0.0	231.40874981880188	1.0000932216644287
28	109.19031000137329	movie	1		285	27.0	2.5	/experiments/knapen_AOT/aot_oldvideos/S_yt-e5ua5Pj86E4_140.mp4	0.0	232.4088430404663	2.500048875808716
28	111.690358877182	fix_post	2		12	27.0	2.5	/experiments/knapen_AOT/aot_oldvideos/S_yt-e5ua5Pj86E4_140.mp4	0.0	234.90889191627502	0.0999000072479248
29	111.79025888442993	fix_pre	0		120	28.0	2.5	/experiments/knapen_AOT/aot_oldvideos/S_ILSVRC2015_train_00415002.mp4	0.0	235.00879192352295	1.000049114227295
29	112.79030799865723	movie	1		282	28.0	2.5	/experiments/knapen_AOT/aot_oldvideos/S_ILSVRC2015_train_00415002.mp4	0.0	236.00884103775024	2.4999868869781494
29	115.29029488563538	fix_post	2		12	28.0	2.5	/experiments/knapen_AOT/aot_oldvideos/S_ILSVRC2015_train_00415002.mp4	0.0	238.5088279247284	0.10003995895385742
30	115.39033484458923	fix_pre	0		120	29.0	2.5	/experiments/knapen_AOT/aot_oldvideos/S_yt-a_awONsLFfE_107.mp4	0.0	238.60886788368225	0.9999890327453613
30	116.3903238773346	movie	1		283	29.0	2.5	/experiments/knapen_AOT/aot_oldvideos/S_yt-a_awONsLFfE_107.mp4	0.0	239.6088569164276	2.500019073486328
30	118.89034295082092	fix_post	2		12	29.0	2.5	/experiments/knapen_AOT/aot_oldvideos/S_yt-a_awONsLFfE_107.mp4	0.0	242.10887598991394	0.10000085830688477
31	118.99034380912781	fix_pre	0		120	30.0	2.5	/experiments/knapen_AOT/aot_oldvideos/S_yt-65cexqxy5lU_35.mp4	0.0	242.20887684822083	0.9999740123748779
31	119.99031782150269	movie	1		285	30.0	2.5	/experiments/knapen_AOT/aot_oldvideos/S_yt-65cexqxy5lU_35.mp4	0.0	243.2088508605957	2.500154972076416
31	122.4904727935791	fix_post	2		12	30.0	2.5	/experiments/knapen_AOT/aot_oldvideos/S_yt-65cexqxy5lU_35.mp4	0.0	245.70900583267212	0.09996914863586426
32	122.59044194221497	fix_pre	0		120	31.0	2.5	/experiments/knapen_AOT/aot_oldvideos/S_yt-JxqSboqaUPY_5.mp4	0.0	245.80897498130798	1.0000858306884766
32	123.59052777290344	movie	1		284	31.0	2.5	/experiments/knapen_AOT/aot_oldvideos/S_yt-JxqSboqaUPY_5.mp4	0.0	246.80906081199646	2.499974012374878
32	126.09050178527832	fix_post	2		12	31.0	2.5	/experiments/knapen_AOT/aot_oldvideos/S_yt-JxqSboqaUPY_5.mp4	0.0	249.30903482437134	0.09998202323913574
33	126.19048380851746	fix_pre	0		120	32.0	2.5	/experiments/knapen_AOT/aot_oldvideos/S_yt-Y32yFYRmNVU_22.mp4	0.0	249.40901684761047	1.0000240802764893
33	127.19050788879395	movie	1		282	32.0	2.5	/experiments/knapen_AOT/aot_oldvideos/S_yt-Y32yFYRmNVU_22.mp4	0.0	250.40904092788696	2.4999730587005615
33	129.6904809474945	fix_post	2		12	32.0	2.5	/experiments/knapen_AOT/aot_oldvideos/S_yt-Y32yFYRmNVU_22.mp4	0.0	252.90901398658752	0.10002994537353516
34	129.79051089286804	fix_pre	0		120	33.0	2.5	/experiments/knapen_AOT/aot_oldvideos/S_yt-AJypa57HKqM_28.mp4	0.0	253.00904393196106	1.000020980834961
34	130.790531873703	movie	1		298	33.0	2.5	/experiments/knapen_AOT/aot_oldvideos/S_yt-AJypa57HKqM_28.mp4	0.0	254.00906491279602	2.5000429153442383
34	133.29057478904724	fix_post	2		12	33.0	2.5	/experiments/knapen_AOT/aot_oldvideos/S_yt-AJypa57HKqM_28.mp4	0.0	256.50910782814026	0.09999299049377441
35	133.39056777954102	fix_pre	0		120	34.0	2.5	/experiments/knapen_AOT/aot_oldvideos/S_yt-YWfInCviN1s_126.mp4	0.0	256.60910081863403	1.0000040531158447
35	134.39057183265686	movie	1		285	34.0	2.5	/experiments/knapen_AOT/aot_oldvideos/S_yt-YWfInCviN1s_126.mp4	0.0	257.6091048717499	2.500046968460083
35	136.89061880111694	fix_post	2		12	34.0	2.5	/experiments/knapen_AOT/aot_oldvideos/S_yt-YWfInCviN1s_126.mp4	0.0	260.10915184020996	0.09998416900634766
36	136.9906029701233	fix_pre	0		120	35.0	2.5	/experiments/knapen_AOT/aot_oldvideos/S_yt-Uih643A1YtA_110.mp4	0.0	260.2091360092163	0.9999959468841553
36	137.99059891700745	movie	1		293	35.0	2.5	/experiments/knapen_AOT/aot_oldvideos/S_yt-Uih643A1YtA_110.mp4	0.0	261.20913195610046	2.5001208782196045
36	140.49071979522705	fix_post	2		12	35.0	2.5	/experiments/knapen_AOT/aot_oldvideos/S_yt-Uih643A1YtA_110.mp4	0.0	263.70925283432007	0.09995603561401367
37	140.59067583084106	fix_pre	0		120	36.0	2.5	/experiments/knapen_AOT/aot_oldvideos/S_ILSVRC2015_train_00552000.mp4	0.0	263.8092088699341	1.0001130104064941
37	141.59078884124756	movie	1		292	36.0	2.5	/experiments/knapen_AOT/aot_oldvideos/S_ILSVRC2015_train_00552000.mp4	0.0	264.8093218803406	2.499946117401123
37	144.09073495864868	fix_post	2		12	36.0	2.5	/experiments/knapen_AOT/aot_oldvideos/S_ILSVRC2015_train_00552000.mp4	0.0	267.3092679977417	0.09998393058776855
38	144.19071888923645	fix_pre	0		120	37.0	2.5	/experiments/knapen_AOT/aot_oldvideos/S_yt-9PTQ4U4oPUU_243.mp4	0.0	267.40925192832947	1.0000488758087158
38	145.19076776504517	movie	1		286	37.0	2.5	/experiments/knapen_AOT/aot_oldvideos/S_yt-9PTQ4U4oPUU_243.mp4	0.0	268.4093008041382	2.49997615814209
38	147.69074392318726	fix_post	2		12	37.0	2.5	/experiments/knapen_AOT/aot_oldvideos/S_yt-9PTQ4U4oPUU_243.mp4	0.0	270.9092769622803	0.09999394416809082
39	147.79073786735535	fix_pre	0		120	38.0	2.5	/experiments/knapen_AOT/aot_oldvideos/S_yt-VypeVQ7gJ_k_578.mp4	0.0	271.00927090644836	1.000006914138794
39	148.79074478149414	movie	1		290	38.0	2.5	/experiments/knapen_AOT/aot_oldvideos/S_yt-VypeVQ7gJ_k_578.mp4	0.0	272.00927782058716	2.5000970363616943
39	151.29084181785583	fix_post	2		12	38.0	2.5	/experiments/knapen_AOT/aot_oldvideos/S_yt-VypeVQ7gJ_k_578.mp4	0.0	274.50937485694885	0.09996795654296875
40	151.3908097743988	fix_pre	0		120	39.0	2.5	/experiments/knapen_AOT/aot_oldvideos/S_yt-DpLc4e4bpu0_1467.mp4	0.0	274.6093428134918	0.99996018409729
40	152.3907699584961	movie	1		288	39.0	2.5	/experiments/knapen_AOT/aot_oldvideos/S_yt-DpLc4e4bpu0_1467.mp4	0.0	275.6093029975891	2.5000739097595215
40	154.89084386825562	fix_post	2		12	39.0	2.5	/experiments/knapen_AOT/aot_oldvideos/S_yt-DpLc4e4bpu0_1467.mp4	0.0	278.10937690734863	0.09998703002929688
41	154.9908308982849	fix_pre	0		120	40.0	2.5	/experiments/knapen_AOT/aot_oldvideos/S_yt-sBdvBO-TPNM_8.mp4	0.0	278.20936393737793	0.9999780654907227
41	155.99080896377563	movie	1		286	40.0	2.5	/experiments/knapen_AOT/aot_oldvideos/S_yt-sBdvBO-TPNM_8.mp4	0.0	279.20934200286865	2.500092029571533
41	158.49090099334717	fix_post	2		12	40.0	2.5	/experiments/knapen_AOT/aot_oldvideos/S_yt-sBdvBO-TPNM_8.mp4	0.0	281.7094340324402	0.0999598503112793
42	158.59086084365845	fix_pre	0		120	41.0	2.5	blank	1.0	281.80939388275146	1.0000150203704834
42	159.59087586402893	movie	1		300	41.0	2.5	blank	1.0	282.80940890312195	2.5000369548797607
42	162.0909128189087	fix_post	2		12	41.0	2.5	blank	1.0	285.3094458580017	0.0999910831451416
43	162.19090390205383	fix_pre	0		120	42.0	2.5	/experiments/knapen_AOT/aot_oldvideos/S_yt-4slVHFGPwEs_744.mp4	0.0	285.40943694114685	1.000006914138794
43	163.19091081619263	movie	1		220	42.0	2.5	/experiments/knapen_AOT/aot_oldvideos/S_yt-4slVHFGPwEs_744.mp4	0.0	286.40944385528564	2.5000271797180176
43	165.69093799591064	fix_post	2		12	42.0	2.5	/experiments/knapen_AOT/aot_oldvideos/S_yt-4slVHFGPwEs_744.mp4	0.0	288.90947103500366	0.10001897811889648
44	165.79095697402954	fix_pre	0		120	43.0	2.5	/experiments/knapen_AOT/aot_oldvideos/S_yt-mOQJwaPQbMg_5.mp4	0.0	289.00949001312256	1.00003981590271
44	166.79099678993225	movie	1		288	43.0	2.5	/experiments/knapen_AOT/aot_oldvideos/S_yt-mOQJwaPQbMg_5.mp4	0.0	290.00952982902527	2.500030994415283
44	169.29102778434753	fix_post	2		9	43.0	2.5	/experiments/knapen_AOT/aot_oldvideos/S_yt-mOQJwaPQbMg_5.mp4	0.0	292.50956082344055	0.100006103515625
45	169.39103388786316	fix_pre	0		120	44.0	2.5	/experiments/knapen_AOT/aot_oldvideos/S_yt-q8mfIumbHuo_84.mp4	0.0	292.6095669269562	1.0000190734863281
45	170.3910529613495	movie	1		280	44.0	2.5	/experiments/knapen_AOT/aot_oldvideos/S_yt-q8mfIumbHuo_84.mp4	0.0	293.6095860004425	2.4999969005584717
45	172.89104986190796	fix_post	2		12	44.0	2.5	/experiments/knapen_AOT/aot_oldvideos/S_yt-q8mfIumbHuo_84.mp4	0.0	296.109582901001	0.10006403923034668
46	172.9911139011383	fix_pre	0		120	45.0	2.5	/experiments/knapen_AOT/aot_oldvideos/S_yt-jovPh9BdlYI_215.mp4	0.0	296.2096469402313	1.5103249549865723
46	174.50143885612488	movie	1		220	45.0	2.5	/experiments/knapen_AOT/aot_oldvideos/S_yt-jovPh9BdlYI_215.mp4	0.0	297.7199718952179	1.989772081375122
46	176.4912109375	fix_post	2		12	45.0	2.5	/experiments/knapen_AOT/aot_oldvideos/S_yt-jovPh9BdlYI_215.mp4	0.0	299.709743976593	0.09997987747192383
47	176.59119081497192	fix_pre	0		120	46.0	2.5	/experiments/knapen_AOT/aot_oldvideos/S_yt-jsG6vM9Lkoc_318.mp4	0.0	299.80972385406494	0.9999711513519287
47	177.59116196632385	movie	1		286	46.0	2.5	/experiments/knapen_AOT/aot_oldvideos/S_yt-jsG6vM9Lkoc_318.mp4	0.0	300.80969500541687	2.500051975250244
47	180.0912139415741	fix_post	2		12	46.0	2.5	/experiments/knapen_AOT/aot_oldvideos/S_yt-jsG6vM9Lkoc_318.mp4	0.0	303.3097469806671	0.09992098808288574
48	180.19113492965698	fix_pre	0		120	47.0	2.5	/experiments/knapen_AOT/aot_oldvideos/S_ILSVRC2015_train_00536000.mp4	0.0	303.40966796875	1.0000100135803223
48	181.1911449432373	movie	1		292	47.0	2.5	/experiments/knapen_AOT/aot_oldvideos/S_ILSVRC2015_train_00536000.mp4	0.0	304.4096779823303	2.500067949295044
48	183.69121289253235	fix_post	2		12	47.0	2.5	/experiments/knapen_AOT/aot_oldvideos/S_ILSVRC2015_train_00536000.mp4	0.0	306.90974593162537	0.10005402565002441
49	183.79126691818237	fix_pre	0		120	48.0	2.5	/experiments/knapen_AOT/aot_oldvideos/S_yt-DfgpLIP0jnk_105.mp4	0.0	307.0097999572754	1.0000009536743164
49	184.7912678718567	movie	1		282	48.0	2.5	/experiments/knapen_AOT/aot_oldvideos/S_yt-DfgpLIP0jnk_105.mp4	0.0	308.0098009109497	2.4999821186065674
49	187.29124999046326	fix_post	2		12	48.0	2.5	/experiments/knapen_AOT/aot_oldvideos/S_yt-DfgpLIP0jnk_105.mp4	0.0	310.5097830295563	0.10003995895385742
50	187.39128994941711	fix_pre	0		120	49.0	2.5	/experiments/knapen_AOT/aot_oldvideos/S_yt-ePxv64kEqa0_177.mp4	0.0	310.60982298851013	1.000126838684082
50	188.3914167881012	movie	1		291	49.0	2.5	/experiments/knapen_AOT/aot_oldvideos/S_yt-ePxv64kEqa0_177.mp4	0.0	311.6099498271942	2.499927043914795
50	190.891343832016	fix_post	2		12	49.0	2.5	/experiments/knapen_AOT/aot_oldvideos/S_yt-ePxv64kEqa0_177.mp4	0.0	314.109876871109	0.0999600887298584
51	190.99130392074585	fix_pre	0		120	50.0	2.5	/experiments/knapen_AOT/aot_oldvideos/S_yt-Pd3_4Z2tbFU_47.mp4	0.0	314.20983695983887	1.000014066696167
51	191.99131798744202	movie	1		291	50.0	2.5	/experiments/knapen_AOT/aot_oldvideos/S_yt-Pd3_4Z2tbFU_47.mp4	0.0	315.20985102653503	2.5000579357147217
51	194.49137592315674	fix_post	2		12	50.0	2.5	/experiments/knapen_AOT/aot_oldvideos/S_yt-Pd3_4Z2tbFU_47.mp4	0.0	317.70990896224976	0.10034894943237305
52	194.5917248725891	fix_pre	0		120	51.0	2.5	/experiments/knapen_AOT/aot_oldvideos/S_yt-A1XT1fT1c8w_24.mp4	0.0	317.81025791168213	0.9996271133422852
52	195.5913519859314	movie	1		287	51.0	2.5	/experiments/knapen_AOT/aot_oldvideos/S_yt-A1XT1fT1c8w_24.mp4	0.0	318.8098850250244	2.5001988410949707
52	198.09155082702637	fix_post	2		12	51.0	2.5	/experiments/knapen_AOT/aot_oldvideos/S_yt-A1XT1fT1c8w_24.mp4	0.0	321.3100838661194	0.09984612464904785
53	198.19139695167542	fix_pre	0		120	52.0	2.5	blank	1.0	321.40992999076843	1.0000159740447998
53	199.19141292572021	movie	1		300	52.0	2.5	blank	1.0	322.40994596481323	2.500037908554077
53	201.6914508342743	fix_post	2		12	52.0	2.5	blank	1.0	324.9099838733673	0.10001015663146973
54	201.79146099090576	fix_pre	0		120	53.0	2.5	/experiments/knapen_AOT/aot_oldvideos/S_yt-cILZ_cB3_so_73.mp4	0.0	325.0099940299988	1.0000128746032715
54	202.79147386550903	movie	1		281	53.0	2.5	/experiments/knapen_AOT/aot_oldvideos/S_yt-cILZ_cB3_so_73.mp4	0.0	326.01000690460205	2.5000100135803223
54	205.29148387908936	fix_post	2		12	53.0	2.5	/experiments/knapen_AOT/aot_oldvideos/S_yt-cILZ_cB3_so_73.mp4	0.0	328.5100169181824	0.10005807876586914
55	205.39154195785522	fix_pre	0		120	54.0	2.5	/experiments/knapen_AOT/aot_oldvideos/S_yt-gbDSSDcRlg4_31.mp4	0.0	328.61007499694824	1.0000879764556885
55	206.3916299343109	movie	1		285	54.0	2.5	/experiments/knapen_AOT/aot_oldvideos/S_yt-gbDSSDcRlg4_31.mp4	0.0	329.61016297340393	2.499908924102783
55	208.8915388584137	fix_post	2		12	54.0	2.5	/experiments/knapen_AOT/aot_oldvideos/S_yt-gbDSSDcRlg4_31.mp4	0.0	332.1100718975067	0.09999608993530273
56	208.991534948349	fix_pre	0		120	55.0	2.5	/experiments/knapen_AOT/aot_oldvideos/S_yt-MXCxHM_Ms8A_15.mp4	0.0	332.210067987442	1.0000169277191162
56	209.99155187606812	movie	1		284	55.0	2.5	/experiments/knapen_AOT/aot_oldvideos/S_yt-MXCxHM_Ms8A_15.mp4	0.0	333.21008491516113	2.500016927719116
56	212.49156880378723	fix_post	2		12	55.0	2.5	/experiments/knapen_AOT/aot_oldvideos/S_yt-MXCxHM_Ms8A_15.mp4	0.0	335.71010184288025	0.10027408599853516
57	212.59184288978577	fix_pre	0		120	56.0	2.5	/experiments/knapen_AOT/aot_oldvideos/S_yt-pB-AcJ71tzA_20.mp4	0.0	335.8103759288788	0.9997498989105225
57	213.5915927886963	movie	1		275	56.0	2.5	/experiments/knapen_AOT/aot_oldvideos/S_yt-pB-AcJ71tzA_20.mp4	0.0	336.8101258277893	2.5000760555267334
57	216.09166884422302	fix_post	2		12	56.0	2.5	/experiments/knapen_AOT/aot_oldvideos/S_yt-pB-AcJ71tzA_20.mp4	0.0	339.31020188331604	0.09995508193969727
58	216.19162392616272	fix_pre	0		120	57.0	2.5	/experiments/knapen_AOT/aot_oldvideos/S_yt-DO1vncSoiJk_58.mp4	0.0	339.41015696525574	0.9999990463256836
58	217.1916229724884	movie	1		275	57.0	2.5	/experiments/knapen_AOT/aot_oldvideos/S_yt-DO1vncSoiJk_58.mp4	0.0	340.4101560115814	2.5000739097595215
58	219.69169688224792	fix_post	2		12	57.0	2.5	/experiments/knapen_AOT/aot_oldvideos/S_yt-DO1vncSoiJk_58.mp4	0.0	342.91022992134094	0.09997296333312988
59	219.79166984558105	fix_pre	0		120	58.0	2.5	/experiments/knapen_AOT/aot_oldvideos/S_yt-ChAhBD9LrsU_223.mp4	0.0	343.0102028846741	1.0000181198120117
59	220.79168796539307	movie	1		274	58.0	2.5	/experiments/knapen_AOT/aot_oldvideos/S_yt-ChAhBD9LrsU_223.mp4	0.0	344.0102210044861	2.5000269412994385
59	223.2917149066925	fix_post	2		12	58.0	2.5	/experiments/knapen_AOT/aot_oldvideos/S_yt-ChAhBD9LrsU_223.mp4	0.0	346.5102479457855	0.10003495216369629
60	223.3917498588562	fix_pre	0		120	59.0	2.5	/experiments/knapen_AOT/aot_oldvideos/S_yt-P2RwcXMKIbQ_1.mp4	0.0	346.6102828979492	0.9999880790710449
60	224.39173793792725	movie	1		274	59.0	2.5	/experiments/knapen_AOT/aot_oldvideos/S_yt-P2RwcXMKIbQ_1.mp4	0.0	347.61027097702026	2.500020980834961
60	226.8917589187622	fix_post	2		12	59.0	2.5	/experiments/knapen_AOT/aot_oldvideos/S_yt-P2RwcXMKIbQ_1.mp4	0.0	350.1102919578552	0.10005307197570801
61	226.99181199073792	fix_pre	0		120	60.0	2.5	/experiments/knapen_AOT/aot_oldvideos/S_2E67nCgRCGk_75.mp4	0.0	350.21034502983093	0.99997878074646
61	227.99179077148438	movie	1		279	60.0	2.5	/experiments/knapen_AOT/aot_oldvideos/S_2E67nCgRCGk_75.mp4	0.0	351.2103238105774	2.5000250339508057
61	230.49181580543518	fix_post	2		12	60.0	2.5	/experiments/knapen_AOT/aot_oldvideos/S_2E67nCgRCGk_75.mp4	0.0	353.7103488445282	0.1001591682434082
62	230.5919749736786	fix_pre	0		120	61.0	2.5	/experiments/knapen_AOT/aot_oldvideos/S_yt-2U5u3lLJx5M_7.mp4	0.0	353.8105080127716	1.0000109672546387
62	231.59198594093323	movie	1		276	61.0	2.5	/experiments/knapen_AOT/aot_oldvideos/S_yt-2U5u3lLJx5M_7.mp4	0.0	354.81051898002625	2.4998748302459717
62	234.0918607711792	fix_post	2		12	61.0	2.5	/experiments/knapen_AOT/aot_oldvideos/S_yt-2U5u3lLJx5M_7.mp4	0.0	357.3103938102722	0.10000205039978027
63	234.19186282157898	fix_pre	0		120	62.0	2.5	/experiments/knapen_AOT/aot_oldvideos/S_yt-RL1chIcbTPQ_11.mp4	0.0	357.410395860672	1.000025987625122
63	235.1918888092041	movie	1		276	62.0	2.5	/experiments/knapen_AOT/aot_oldvideos/S_yt-RL1chIcbTPQ_11.mp4	0.0	358.4104218482971	2.5000410079956055
63	237.6919298171997	fix_post	2		12	62.0	2.5	/experiments/knapen_AOT/aot_oldvideos/S_yt-RL1chIcbTPQ_11.mp4	0.0	360.9104628562927	0.09998416900634766
64	237.79191398620605	fix_pre	0		120	63.0	2.5	/experiments/knapen_AOT/aot_oldvideos/S_yt-u0N1IsXxLM4_103.mp4	0.0	361.0104470252991	1.0000109672546387
64	238.7919249534607	movie	1		283	63.0	2.5	/experiments/knapen_AOT/aot_oldvideos/S_yt-u0N1IsXxLM4_103.mp4	0.0	362.0104579925537	2.5000319480895996
64	241.2919569015503	fix_post	2		12	63.0	2.5	/experiments/knapen_AOT/aot_oldvideos/S_yt-u0N1IsXxLM4_103.mp4	0.0	364.5104899406433	0.10000991821289062
65	241.39196681976318	fix_pre	0		120	64.0	2.5	/experiments/knapen_AOT/aot_oldvideos/S_yt-VyVvEvP6MRM_124.mp4	0.0	364.6104998588562	1.0000131130218506
65	242.39197993278503	movie	1		276	64.0	2.5	/experiments/knapen_AOT/aot_oldvideos/S_yt-VyVvEvP6MRM_124.mp4	0.0	365.61051297187805	2.5000228881835938
65	244.89200282096863	fix_post	2		12	64.0	2.5	/experiments/knapen_AOT/aot_oldvideos/S_yt-VyVvEvP6MRM_124.mp4	0.0	368.11053586006165	0.10009908676147461
66	244.9921019077301	fix_pre	0		120	65.0	2.5	/experiments/knapen_AOT/aot_oldvideos/S_yt-GBqXIFjZf8w_28.mp4	0.0	368.2106349468231	0.9999279975891113
66	245.9920299053192	movie	1		262	65.0	2.5	/experiments/knapen_AOT/aot_oldvideos/S_yt-GBqXIFjZf8w_28.mp4	0.0	369.21056294441223	2.5000290870666504
66	248.49205899238586	fix_post	2		12	65.0	2.5	/experiments/knapen_AOT/aot_oldvideos/S_yt-GBqXIFjZf8w_28.mp4	0.0	371.7105920314789	0.10004281997680664
67	248.59210181236267	fix_pre	0		120	66.0	2.5	blank	1.0	371.8106348514557	1.0000040531158447
67	249.59210586547852	movie	1		300	66.0	2.5	blank	1.0	372.81063890457153	2.500037908554077
67	252.0921437740326	fix_post	2		12	66.0	2.5	blank	1.0	375.3106768131256	0.09998011589050293
68	252.1921238899231	fix_pre	0		120	67.0	2.5	/experiments/knapen_AOT/aot_oldvideos/S_yt-hjqjWlzPRjY_76.mp4	0.0	375.4106569290161	1.0000009536743164
68	253.1921248435974	movie	1		271	67.0	2.5	/experiments/knapen_AOT/aot_oldvideos/S_yt-hjqjWlzPRjY_76.mp4	0.0	376.41065788269043	2.5000460147857666
68	255.69217085838318	fix_post	2		12	67.0	2.5	/experiments/knapen_AOT/aot_oldvideos/S_yt-hjqjWlzPRjY_76.mp4	0.0	378.9107038974762	0.10002613067626953
69	255.79219698905945	fix_pre	0		120	68.0	2.5	/experiments/knapen_AOT/aot_oldvideos/S_yt-bWXohhodbjg_86.mp4	0.0	379.01073002815247	0.9999938011169434
69	256.7921907901764	movie	1		272	68.0	2.5	/experiments/knapen_AOT/aot_oldvideos/S_yt-bWXohhodbjg_86.mp4	0.0	380.0107238292694	2.500005006790161
69	259.29219579696655	fix_post	2		12	68.0	2.5	/experiments/knapen_AOT/aot_oldvideos/S_yt-bWXohhodbjg_86.mp4	0.0	382.51072883605957	0.09997916221618652
70	259.39217495918274	fix_pre	0		120	69.0	2.5	/experiments/knapen_AOT/aot_oldvideos/S_CHWw361oMSQ_195.mp4	0.0	382.61070799827576	1.00003981590271
70	260.39221477508545	movie	1		265	69.0	2.5	/experiments/knapen_AOT/aot_oldvideos/S_CHWw361oMSQ_195.mp4	0.0	383.61074781417847	2.500082015991211
70	262.89229679107666	fix_post	2		12	69.0	2.5	/experiments/knapen_AOT/aot_oldvideos/S_CHWw361oMSQ_195.mp4	0.0	386.1108298301697	0.09993600845336914
71	262.99223279953003	fix_pre	0		120	70.0	2.5	/experiments/knapen_AOT/aot_oldvideos/S_yt-cWBQB8CxsVY_69.mp4	0.0	386.21076583862305	1.0000300407409668
71	263.992262840271	movie	1		267	70.0	2.5	/experiments/knapen_AOT/aot_oldvideos/S_yt-cWBQB8CxsVY_69.mp4	0.0	387.210795879364	2.500023126602173
71	266.49228596687317	fix_post	2		12	70.0	2.5	/experiments/knapen_AOT/aot_oldvideos/S_yt-cWBQB8CxsVY_69.mp4	0.0	389.7108190059662	0.10004591941833496
72	266.5923318862915	fix_pre	0		120	71.0	2.5	/experiments/knapen_AOT/aot_oldvideos/S_yt-g_RCws799LQ_52.mp4	0.0	389.8108649253845	1.0000510215759277
72	267.59238290786743	movie	1		272	71.0	2.5	/experiments/knapen_AOT/aot_oldvideos/S_yt-g_RCws799LQ_52.mp4	0.0	390.81091594696045	2.499964952468872
72	270.0923478603363	fix_post	2		12	71.0	2.5	/experiments/knapen_AOT/aot_oldvideos/S_yt-g_RCws799LQ_52.mp4	0.0	393.3108808994293	0.09999513626098633
73	270.1923429965973	fix_pre	0		120	72.0	2.5	/experiments/knapen_AOT/aot_oldvideos/S_ILSVRC2015_train_00611000.mp4	0.0	393.4108760356903	1.0000338554382324
73	271.1923768520355	movie	1		268	72.0	2.5	/experiments/knapen_AOT/aot_oldvideos/S_ILSVRC2015_train_00611000.mp4	0.0	394.41090989112854	2.5000131130218506
73	273.6923899650574	fix_post	2		12	72.0	2.5	/experiments/knapen_AOT/aot_oldvideos/S_ILSVRC2015_train_00611000.mp4	0.0	396.9109230041504	0.10001397132873535
74	273.7924039363861	fix_pre	0		120	73.0	2.5	/experiments/knapen_AOT/aot_oldvideos/S_yt-p-kbRhTdyiQ_31.mp4	0.0	397.0109369754791	1.0000200271606445
74	274.79242396354675	movie	1		269	73.0	2.5	/experiments/knapen_AOT/aot_oldvideos/S_yt-p-kbRhTdyiQ_31.mp4	0.0	398.01095700263977	2.500016927719116
74	277.29244089126587	fix_post	2		9	73.0	2.5	/experiments/knapen_AOT/aot_oldvideos/S_yt-p-kbRhTdyiQ_31.mp4	0.0	400.5109739303589	0.09170794486999512
75	277.38414883613586	fix_pre	0		121	74.0	2.5	/experiments/knapen_AOT/aot_oldvideos/S_yt-1VTxnf2hZ0w_675.mp4	0.0	400.6026818752289	1.0083389282226562
75	278.3924877643585	movie	1		269	74.0	2.5	/experiments/knapen_AOT/aot_oldvideos/S_yt-1VTxnf2hZ0w_675.mp4	0.0	401.61102080345154	2.4999940395355225
75	280.89248180389404	fix_post	2		12	74.0	2.5	/experiments/knapen_AOT/aot_oldvideos/S_yt-1VTxnf2hZ0w_675.mp4	0.0	404.11101484298706	0.10001015663146973
76	280.9924919605255	fix_pre	0		119	75.0	2.5	/experiments/knapen_AOT/aot_oldvideos/S_ILSVRC2015_train_00707000.mp4	0.0	404.21102499961853	0.9916918277740479
76	281.98418378829956	movie	1		269	75.0	2.5	/experiments/knapen_AOT/aot_oldvideos/S_ILSVRC2015_train_00707000.mp4	0.0	405.2027168273926	2.500040054321289
76	284.48422384262085	fix_post	2		12	75.0	2.5	/experiments/knapen_AOT/aot_oldvideos/S_ILSVRC2015_train_00707000.mp4	0.0	407.70275688171387	0.10001015663146973
77	284.5842339992523	fix_pre	0		120	76.0	2.5	/experiments/knapen_AOT/aot_oldvideos/S_yt-D9iwtEHx8M0_20.mp4	0.0	407.80276703834534	0.99997878074646
77	285.5842127799988	movie	1		271	76.0	2.5	/experiments/knapen_AOT/aot_oldvideos/S_yt-D9iwtEHx8M0_20.mp4	0.0	408.8027458190918	2.5083670616149902
77	288.09257984161377	fix_post	2		12	76.0	2.5	/experiments/knapen_AOT/aot_oldvideos/S_yt-D9iwtEHx8M0_20.mp4	0.0	411.3111128807068	0.1000051498413086
78	288.1925849914551	fix_pre	0		119	77.0	2.5	/experiments/knapen_AOT/aot_oldvideos/S_yt-2wb0b0pdSxU_59.mp4	0.0	411.4111180305481	0.9916818141937256
78	289.1842668056488	movie	1		266	77.0	2.5	/experiments/knapen_AOT/aot_oldvideos/S_yt-2wb0b0pdSxU_59.mp4	0.0	412.4027998447418	2.5000381469726562
78	291.68430495262146	fix_post	2		12	77.0	2.5	/experiments/knapen_AOT/aot_oldvideos/S_yt-2wb0b0pdSxU_59.mp4	0.0	414.9028379917145	0.10001182556152344
79	291.784316778183	fix_pre	0		120	78.0	2.5	/experiments/knapen_AOT/aot_oldvideos/S_yt-NqZHX-eOVUA_35.mp4	0.0	415.002849817276	0.9999961853027344
79	292.7843129634857	movie	1		269	78.0	2.5	/experiments/knapen_AOT/aot_oldvideos/S_yt-NqZHX-eOVUA_35.mp4	0.0	416.00284600257874	2.500105857849121
79	295.28441882133484	fix_post	2		12	78.0	2.5	/experiments/knapen_AOT/aot_oldvideos/S_yt-NqZHX-eOVUA_35.mp4	0.0	418.50295186042786	0.09993195533752441
80	295.38435077667236	fix_pre	0		120	79.0	2.5	blank	1.0	418.6028838157654	0.9999961853027344
80	296.3843469619751	movie	1		300	79.0	2.5	blank	1.0	419.6028800010681	2.5000479221343994
80	298.8843948841095	fix_post	2		12	79.0	2.5	blank	1.0	422.1029279232025	0.10004806518554688
81	298.98444294929504	fix_pre	0		120	80.0	2.5	/experiments/knapen_AOT/aot_oldvideos/S_flickr-thelastdon-8662706978_3.mp4	0.0	422.20297598838806	0.9999589920043945
81	299.98440194129944	movie	1		267	80.0	2.5	/experiments/knapen_AOT/aot_oldvideos/S_flickr-thelastdon-8662706978_3.mp4	0.0	423.20293498039246	2.500030040740967
81	302.4844319820404	fix_post	2		12	80.0	2.5	/experiments/knapen_AOT/aot_oldvideos/S_flickr-thelastdon-8662706978_3.mp4	0.0	425.7029650211334	0.1000068187713623
82	302.58443880081177	fix_pre	0		120	81.0	2.5	/experiments/knapen_AOT/aot_oldvideos/S_yt-e9ttJw0BUuU_40.mp4	0.0	425.8029718399048	1.0000221729278564
82	303.5844609737396	movie	1		271	81.0	2.5	/experiments/knapen_AOT/aot_oldvideos/S_yt-e9ttJw0BUuU_40.mp4	0.0	426.80299401283264	2.500027894973755
82	306.0844888687134	fix_post	2		12	81.0	2.5	/experiments/knapen_AOT/aot_oldvideos/S_yt-e9ttJw0BUuU_40.mp4	0.0	429.3030219078064	0.10002613067626953
83	306.18451499938965	fix_pre	0		120	82.0	2.5	/experiments/knapen_AOT/aot_oldvideos/S_yt-Z1ozMh4szTk_13.mp4	0.0	429.40304803848267	1.0000088214874268
83	307.1845238208771	movie	1		275	82.0	2.5	/experiments/knapen_AOT/aot_oldvideos/S_yt-Z1ozMh4szTk_13.mp4	0.0	430.4030568599701	2.500019073486328
83	309.6845428943634	fix_post	2		12	82.0	2.5	/experiments/knapen_AOT/aot_oldvideos/S_yt-Z1ozMh4szTk_13.mp4	0.0	432.9030759334564	0.10001301765441895
84	309.7845559120178	fix_pre	0		120	83.0	2.5	/experiments/knapen_AOT/aot_oldvideos/S_yt-ihCTIoE7qsk_730.mp4	0.0	433.00308895111084	0.9999949932098389
84	310.78455090522766	movie	1		270	83.0	2.5	/experiments/knapen_AOT/aot_oldvideos/S_yt-ihCTIoE7qsk_730.mp4	0.0	434.0030839443207	2.5000479221343994
84	313.28459882736206	fix_post	2		12	83.0	2.5	/experiments/knapen_AOT/aot_oldvideos/S_yt-ihCTIoE7qsk_730.mp4	0.0	436.5031318664551	0.09998011589050293
85	313.38457894325256	fix_pre	0		120	84.0	2.5	blank	1.0	436.6031119823456	1.000011920928955
85	314.3845908641815	movie	1		300	84.0	2.5	blank	1.0	437.60312390327454	2.5000669956207275
85	316.88465785980225	fix_post	2		12	84.0	2.5	blank	1.0	440.10319089889526	0.0999760627746582
86	316.9846339225769	fix_pre	0		120	85.0	2.5	/experiments/knapen_AOT/aot_oldvideos/S_yt-PQYnj2BR17I_16.mp4	0.0	440.2031669616699	1.0000388622283936
86	317.9846727848053	movie	1		274	85.0	2.5	/experiments/knapen_AOT/aot_oldvideos/S_yt-PQYnj2BR17I_16.mp4	0.0	441.2032058238983	2.5000200271606445
86	320.48469281196594	fix_post	2		12	85.0	2.5	/experiments/knapen_AOT/aot_oldvideos/S_yt-PQYnj2BR17I_16.mp4	0.0	443.70322585105896	0.10002613067626953
87	320.5847189426422	fix_pre	0		120	86.0	2.5	/experiments/knapen_AOT/aot_oldvideos/S_yt-be6x_357tjE_41.mp4	0.0	443.80325198173523	0.9999840259552002
87	321.5847029685974	movie	1		280	86.0	2.5	/experiments/knapen_AOT/aot_oldvideos/S_yt-be6x_357tjE_41.mp4	0.0	444.80323600769043	2.500018835067749
87	324.08472180366516	fix_post	2		12	86.0	2.5	/experiments/knapen_AOT/aot_oldvideos/S_yt-be6x_357tjE_41.mp4	0.0	447.3032548427582	0.1000070571899414
88	324.1847288608551	fix_pre	0		120	87.0	2.5	/experiments/knapen_AOT/aot_oldvideos/S_ILSVRC2015_train_00416000.mp4	0.0	447.4032618999481	0.9999890327453613
88	325.18471789360046	movie	1		215	87.0	2.5	/experiments/knapen_AOT/aot_oldvideos/S_ILSVRC2015_train_00416000.mp4	0.0	448.4032509326935	2.500070095062256
88	327.6847879886627	fix_post	2		12	87.0	2.5	/experiments/knapen_AOT/aot_oldvideos/S_ILSVRC2015_train_00416000.mp4	0.0	450.90332102775574	0.09998488426208496
89	327.7847728729248	fix_pre	0		120	88.0	2.5	/experiments/knapen_AOT/aot_oldvideos/S_yt-gbDSSDcRlg4_19.mp4	0.0	451.0033059120178	1.0000500679016113
89	328.7848229408264	movie	1		276	88.0	2.5	/experiments/knapen_AOT/aot_oldvideos/S_yt-gbDSSDcRlg4_19.mp4	0.0	452.00335597991943	2.4999918937683105
89	331.2848148345947	fix_post	2		12	88.0	2.5	/experiments/knapen_AOT/aot_oldvideos/S_yt-gbDSSDcRlg4_19.mp4	0.0	454.50334787368774	0.10003495216369629
90	331.3848497867584	fix_pre	0		120	89.0	2.5	/experiments/knapen_AOT/aot_oldvideos/S_yt-PDNWrJ2bZ6I_79.mp4	0.0	454.60338282585144	0.9999790191650391
90	332.38482880592346	movie	1		275	89.0	2.5	/experiments/knapen_AOT/aot_oldvideos/S_yt-PDNWrJ2bZ6I_79.mp4	0.0	455.6033618450165	2.500041961669922
90	334.8848707675934	fix_post	2		12	89.0	2.5	/experiments/knapen_AOT/aot_oldvideos/S_yt-PDNWrJ2bZ6I_79.mp4	0.0	458.1034038066864	0.0999910831451416
91	334.9848618507385	fix_pre	0		120	90.0	2.5	/experiments/knapen_AOT/aot_oldvideos/S_yt-iCGU1R75BZo_52.mp4	0.0	458.20339488983154	1.0000319480895996
91	335.9848937988281	movie	1		273	90.0	2.5	/experiments/knapen_AOT/aot_oldvideos/S_yt-iCGU1R75BZo_52.mp4	0.0	459.20342683792114	2.500002145767212
91	338.48489594459534	fix_post	2		12	90.0	2.5	/experiments/knapen_AOT/aot_oldvideos/S_yt-iCGU1R75BZo_52.mp4	0.0	461.70342898368835	0.10003399848937988
92	338.5849299430847	fix_pre	0		120	91.0	2.5	blank	1.0	461.80346298217773	1.0000178813934326
92	339.58494782447815	movie	1		300	91.0	2.5	blank	1.0	462.80348086357117	2.5000290870666504
92	342.0849769115448	fix_post	2		12	91.0	2.5	blank	1.0	465.3035099506378	0.09999489784240723
93	342.1849718093872	fix_pre	0		120	92.0	2.5	/experiments/knapen_AOT/aot_oldvideos/S_ILSVRC2015_train_00768002.mp4	0.0	465.4035048484802	1.0000221729278564
93	343.18499398231506	movie	1		279	92.0	2.5	/experiments/knapen_AOT/aot_oldvideos/S_ILSVRC2015_train_00768002.mp4	0.0	466.4035270214081	2.5000147819519043
93	345.68500876426697	fix_post	2		12	92.0	2.5	/experiments/knapen_AOT/aot_oldvideos/S_ILSVRC2015_train_00768002.mp4	0.0	468.90354180336	0.10000014305114746
94	345.7850089073181	fix_pre	0		120	93.0	2.5	/experiments/knapen_AOT/aot_oldvideos/S_yt-cAFx29wS_xo_130.mp4	0.0	469.00354194641113	1.0000369548797607
94	346.7850458621979	movie	1		279	93.0	2.5	/experiments/knapen_AOT/aot_oldvideos/S_yt-cAFx29wS_xo_130.mp4	0.0	470.0035789012909	2.500041961669922
94	349.2850878238678	fix_post	2		12	93.0	2.5	/experiments/knapen_AOT/aot_oldvideos/S_yt-cAFx29wS_xo_130.mp4	0.0	472.5036208629608	0.09997916221618652
95	349.385066986084	fix_pre	0		120	94.0	2.5	/experiments/knapen_AOT/aot_oldvideos/S_yt-58F4cMRhSw8_69.mp4	0.0	472.603600025177	1.0000298023223877
95	350.3850967884064	movie	1		281	94.0	2.5	/experiments/knapen_AOT/aot_oldvideos/S_yt-58F4cMRhSw8_69.mp4	0.0	473.6036298274994	2.4999940395355225
95	352.8850908279419	fix_post	2		12	94.0	2.5	/experiments/knapen_AOT/aot_oldvideos/S_yt-58F4cMRhSw8_69.mp4	0.0	476.1036238670349	0.10001897811889648
96	352.9851098060608	fix_pre	0		120	95.0	2.5	/experiments/knapen_AOT/aot_oldvideos/S_yt-5IEO9Gn5fZ4_59.mp4	0.0	476.2036428451538	1.000007152557373
96	353.98511695861816	movie	1		282	95.0	2.5	/experiments/knapen_AOT/aot_oldvideos/S_yt-5IEO9Gn5fZ4_59.mp4	0.0	477.2036499977112	2.500044822692871
96	356.48516178131104	fix_post	2		12	95.0	2.5	/experiments/knapen_AOT/aot_oldvideos/S_yt-5IEO9Gn5fZ4_59.mp4	0.0	479.70369482040405	0.10001921653747559
97	356.5851809978485	fix_pre	0		120	96.0	2.5	blank	1.0	479.8037140369415	1.0000569820404053
97	357.5852379798889	movie	1		300	96.0	2.5	blank	1.0	480.80377101898193	2.500046968460083
97	360.085284948349	fix_post	2		12	96.0	2.5	blank	1.0	483.303817987442	0.09991788864135742
98	360.18520283699036	fix_pre	0		120	97.0	2.5	/experiments/knapen_AOT/aot_oldvideos/S_yt-gCKmHV5tdSk_59.mp4	0.0	483.4037358760834	1.0000150203704834
98	361.18521785736084	movie	1		283	97.0	2.5	/experiments/knapen_AOT/aot_oldvideos/S_yt-gCKmHV5tdSk_59.mp4	0.0	484.40375089645386	2.500040054321289
98	363.68525791168213	fix_post	2		12	97.0	2.5	/experiments/knapen_AOT/aot_oldvideos/S_yt-gCKmHV5tdSk_59.mp4	0.0	486.90379095077515	0.10001802444458008
99	363.7852759361267	fix_pre	0		120	98.0	2.5	/experiments/knapen_AOT/aot_oldvideos/S_yt-16eN45838LU_255.mp4	0.0	487.0038089752197	0.9999849796295166
99	364.7852609157562	movie	1		287	98.0	2.5	/experiments/knapen_AOT/aot_oldvideos/S_yt-16eN45838LU_255.mp4	0.0	488.00379395484924	2.500062942504883
99	367.2853238582611	fix_post	2		12	98.0	2.5	/experiments/knapen_AOT/aot_oldvideos/S_yt-16eN45838LU_255.mp4	0.0	490.5038568973541	0.09999608993530273
100	367.3853199481964	fix_pre	0		120	99.0	2.5	/experiments/knapen_AOT/aot_oldvideos/S_yt-NVYfkMFUxMk_466.mp4	0.0	490.60385298728943	1.0000479221343994
100	368.3853678703308	movie	1		285	99.0	2.5	/experiments/knapen_AOT/aot_oldvideos/S_yt-NVYfkMFUxMk_466.mp4	0.0	491.6039009094238	2.499979019165039
100	370.88534688949585	fix_post	2		12	99.0	2.5	/experiments/knapen_AOT/aot_oldvideos/S_yt-NVYfkMFUxMk_466.mp4	0.0	494.10387992858887	0.09997797012329102
101	370.98532485961914	fix_pre	0		120	100.0	2.5	/experiments/knapen_AOT/aot_oldvideos/S_yt-iuqdW5OLSzc_6.mp4	0.0	494.20385789871216	1.0000500679016113
101	371.98537492752075	movie	1		283	100.0	2.5	/experiments/knapen_AOT/aot_oldvideos/S_yt-iuqdW5OLSzc_6.mp4	0.0	495.20390796661377	2.5000319480895996
101	374.48540687561035	fix_post	2		12	100.0	2.5	/experiments/knapen_AOT/aot_oldvideos/S_yt-iuqdW5OLSzc_6.mp4	0.0	497.70393991470337	0.1000070571899414
102	374.5854139328003	fix_pre	0		120	101.0	2.5	/experiments/knapen_AOT/aot_oldvideos/S_yt-T2CzKcU8pHo_17.mp4	0.0	497.8039469718933	1.0000720024108887
102	375.5854859352112	movie	1		284	101.0	2.5	/experiments/knapen_AOT/aot_oldvideos/S_yt-T2CzKcU8pHo_17.mp4	0.0	498.8040189743042	2.4999818801879883
102	378.08546781539917	fix_post	2		12	101.0	2.5	/experiments/knapen_AOT/aot_oldvideos/S_yt-T2CzKcU8pHo_17.mp4	0.0	501.3040008544922	0.09998703002929688
103	378.18545484542847	fix_pre	0		120	102.0	2.5	/experiments/knapen_AOT/aot_oldvideos/S_yt-z8fEOmzDlD4_21.mp4	0.0	501.4039878845215	1.0000391006469727
103	379.18549394607544	movie	1		282	102.0	2.5	/experiments/knapen_AOT/aot_oldvideos/S_yt-z8fEOmzDlD4_21.mp4	0.0	502.40402698516846	2.499997854232788
103	381.6854918003082	fix_post	2		12	102.0	2.5	/experiments/knapen_AOT/aot_oldvideos/S_yt-z8fEOmzDlD4_21.mp4	0.0	504.90402483940125	0.10002517700195312
104	381.7855169773102	fix_pre	0		120	103.0	2.5	/experiments/knapen_AOT/aot_oldvideos/S_yt-T2Izta7lYZg_111.mp4	0.0	505.0040500164032	1.0000128746032715
104	382.78552985191345	movie	1		151	103.0	2.5	/experiments/knapen_AOT/aot_oldvideos/S_yt-T2Izta7lYZg_111.mp4	0.0	506.00406289100647	2.500019073486328
104	385.2855489253998	fix_post	2		12	103.0	2.5	/experiments/knapen_AOT/aot_oldvideos/S_yt-T2Izta7lYZg_111.mp4	0.0	508.5040819644928	0.09999489784240723
105	385.3855438232422	fix_pre	0		120	104.0	2.5	/experiments/knapen_AOT/aot_oldvideos/S_yt-Y-8d31A9JXg_12.mp4	0.0	508.6040768623352	1.0000500679016113
105	386.3855938911438	movie	1		287	104.0	2.5	/experiments/knapen_AOT/aot_oldvideos/S_yt-Y-8d31A9JXg_12.mp4	0.0	509.6041269302368	2.5000250339508057
105	388.8856189250946	fix_post	2		12	104.0	2.5	/experiments/knapen_AOT/aot_oldvideos/S_yt-Y-8d31A9JXg_12.mp4	0.0	512.1041519641876	0.10003399848937988
107	388.985652923584	stim	0		1713					512.204185962677	14.300260066986084
