trial_nr	onset	event_type	phase	response	nr_frames	movie_index	movie_duration	movie_file	blank	onset_abs	duration
0	0.16018199920654297	stim	0		575					272.3590610027313	4.7884521484375
0	4.940461158752441	response	0	space						277.1393401622772	
1	4.948634147644043	fix_pre	0		121	0.0	2.5	/experiments/knapen_aot/videos/S_yt-loe3Rqs8TEM_46.mp4	0.0	277.1475131511688	1.0084569454193115
1	5.9570910930633545	movie	1		176	0.0	2.5	/experiments/knapen_aot/videos/S_yt-loe3Rqs8TEM_46.mp4	0.0	278.15597009658813	2.54996395111084
1	8.507055044174194	fix_post	2		6	0.0	2.5	/experiments/knapen_aot/videos/S_yt-loe3Rqs8TEM_46.mp4	0.0	280.705934047699	0.05004692077636719
2	8.557101964950562	fix_pre	0		120	1.0	2.5	/experiments/knapen_aot/videos/S_yt-Z_irN6cNiD4_148.mp4	0.0	280.75598096847534	1.000218152999878
2	9.55732011795044	movie	1		292	1.0	2.5	/experiments/knapen_aot/videos/S_yt-Z_irN6cNiD4_148.mp4	0.0	281.7561991214752	2.4996979236602783
2	12.057018041610718	fix_post	2		12	1.0	2.5	/experiments/knapen_aot/videos/S_yt-Z_irN6cNiD4_148.mp4	0.0	284.2558970451355	0.09995913505554199
3	12.15697717666626	fix_pre	0		120	2.0	2.5	/experiments/knapen_aot/videos/S_yt-t9sowxGR_s4_1.mp4	0.0	284.35585618019104	0.9999608993530273
3	13.156938076019287	movie	1		101	2.0	2.5	/experiments/knapen_aot/videos/S_yt-t9sowxGR_s4_1.mp4	0.0	285.35581707954407	2.5001211166381836
3	15.65705919265747	fix_post	2		12	2.0	2.5	/experiments/knapen_aot/videos/S_yt-t9sowxGR_s4_1.mp4	0.0	287.85593819618225	0.10034489631652832
4	15.757404088973999	fix_pre	0		120	3.0	2.5	/experiments/knapen_aot/videos/S_yt-6_SgWsPne7M_11.mp4	0.0	287.9562830924988	0.9995660781860352
4	16.756970167160034	movie	1		156	3.0	2.5	/experiments/knapen_aot/videos/S_yt-6_SgWsPne7M_11.mp4	0.0	288.9558491706848	2.5002388954162598
4	19.257209062576294	fix_post	2		12	3.0	2.5	/experiments/knapen_aot/videos/S_yt-6_SgWsPne7M_11.mp4	0.0	291.4560880661011	0.10013294219970703
5	19.357342004776	fix_pre	0		120	4.0	2.5	/experiments/knapen_aot/videos/S_yt-n12iRXTksXA_65.mp4	0.0	291.5562210083008	0.9996211528778076
5	20.35696315765381	movie	1		288	4.0	2.5	/experiments/knapen_aot/videos/S_yt-n12iRXTksXA_65.mp4	0.0	292.5558421611786	2.500001907348633
5	22.85696506500244	fix_post	2		12	4.0	2.5	/experiments/knapen_aot/videos/S_yt-n12iRXTksXA_65.mp4	0.0	295.0558440685272	0.09993696212768555
6	22.956902027130127	fix_pre	0		120	5.0	2.5	blank	1.0	295.1557810306549	1.0000450611114502
6	23.956947088241577	movie	1		300	5.0	2.5	blank	1.0	296.15582609176636	2.4999020099639893
6	26.456849098205566	fix_post	2		12	5.0	2.5	blank	1.0	298.65572810173035	0.1000828742980957
7	26.556931972503662	fix_pre	0		120	6.0	2.5	/experiments/knapen_aot/videos/S_yt-S6N5FyjSFZE_4.mp4	0.0	298.75581097602844	1.0
7	27.556931972503662	movie	1		299	6.0	2.5	/experiments/knapen_aot/videos/S_yt-S6N5FyjSFZE_4.mp4	0.0	299.75581097602844	2.4999890327453613
7	30.056921005249023	fix_post	2		12	6.0	2.5	/experiments/knapen_aot/videos/S_yt-S6N5FyjSFZE_4.mp4	0.0	302.2558000087738	0.1000370979309082
8	30.15695810317993	fix_pre	0		120	7.0	2.5	/experiments/knapen_aot/videos/S_yt-sZBe-xmTySc_8.mp4	0.0	302.3558371067047	1.000067949295044
8	31.157026052474976	movie	1		294	7.0	2.5	/experiments/knapen_aot/videos/S_yt-sZBe-xmTySc_8.mp4	0.0	303.35590505599976	2.499843120574951
8	33.65686917304993	fix_post	2		12	7.0	2.5	/experiments/knapen_aot/videos/S_yt-sZBe-xmTySc_8.mp4	0.0	305.8557481765747	0.10001087188720703
9	33.756880044937134	fix_pre	0		120	8.0	2.5	/experiments/knapen_aot/videos/S_yt-qHUewJuLW4o_19.mp4	0.0	305.9557590484619	0.9999420642852783
9	34.75682210922241	movie	1		296	8.0	2.5	/experiments/knapen_aot/videos/S_yt-qHUewJuLW4o_19.mp4	0.0	306.9557011127472	2.5001120567321777
9	37.25693416595459	fix_post	2		12	8.0	2.5	/experiments/knapen_aot/videos/S_yt-qHUewJuLW4o_19.mp4	0.0	309.45581316947937	0.09990096092224121
10	37.35683512687683	fix_pre	0		120	9.0	2.5	/experiments/knapen_aot/videos/S_yt-YZO4_2yJLWE_1447.mp4	0.0	309.5557141304016	1.000093936920166
10	38.356929063797	movie	1		290	9.0	2.5	/experiments/knapen_aot/videos/S_yt-YZO4_2yJLWE_1447.mp4	0.0	310.5558080673218	2.499891996383667
10	40.856821060180664	fix_post	2		12	9.0	2.5	/experiments/knapen_aot/videos/S_yt-YZO4_2yJLWE_1447.mp4	0.0	313.05570006370544	0.10004210472106934
11	40.95686316490173	fix_pre	0		120	10.0	2.5	blank	1.0	313.1557421684265	0.9999728202819824
11	41.956835985183716	movie	1		300	10.0	2.5	blank	1.0	314.1557149887085	2.5000150203704834
11	44.4568510055542	fix_post	2		12	10.0	2.5	blank	1.0	316.655730009079	0.09994816780090332
12	44.5567991733551	fix_pre	0		120	11.0	2.5	/experiments/knapen_aot/videos/S_yt-GpVFUM8K0yE_68.mp4	0.0	316.7556781768799	1.0000438690185547
12	45.55684304237366	movie	1		231	11.0	2.5	/experiments/knapen_aot/videos/S_yt-GpVFUM8K0yE_68.mp4	0.0	317.75572204589844	2.499953031539917
12	48.056796073913574	fix_post	2		12	11.0	2.5	/experiments/knapen_aot/videos/S_yt-GpVFUM8K0yE_68.mp4	0.0	320.25567507743835	0.10003304481506348
13	48.15682911872864	fix_pre	0		120	12.0	2.5	/experiments/knapen_aot/videos/S_yt-Hs5HF3mTQ7A_9.mp4	0.0	320.3557081222534	0.9999909400939941
13	49.15682005882263	movie	1		299	12.0	2.5	/experiments/knapen_aot/videos/S_yt-Hs5HF3mTQ7A_9.mp4	0.0	321.3556990623474	2.5000391006469727
13	51.656859159469604	fix_post	2		12	12.0	2.5	/experiments/knapen_aot/videos/S_yt-Hs5HF3mTQ7A_9.mp4	0.0	323.8557381629944	0.0999448299407959
14	51.7568039894104	fix_pre	0		120	13.0	2.5	/experiments/knapen_aot/videos/S_yt-ZmoUDsP2y40_8.mp4	0.0	323.9556829929352	1.0000371932983398
14	52.75684118270874	movie	1		278	13.0	2.5	/experiments/knapen_aot/videos/S_yt-ZmoUDsP2y40_8.mp4	0.0	324.9557201862335	2.7999839782714844
14	55.556825160980225	fix_post	2		0	13.0	2.5	/experiments/knapen_aot/videos/S_yt-ZmoUDsP2y40_8.mp4	0.0	327.755704164505	0.0020618438720703125
15	55.558887004852295	fix_pre	0		96	14.0	2.5	blank	1.0	327.7577660083771	0.7979421615600586
15	56.35682916641235	movie	1		300	14.0	2.5	blank	1.0	328.55570816993713	2.4999518394470215
15	58.856781005859375	fix_post	2		12	14.0	2.5	blank	1.0	331.05566000938416	0.10069608688354492
16	58.95747709274292	fix_pre	0		120	15.0	2.5	blank	1.0	331.1563560962677	0.9992890357971191
16	59.95676612854004	movie	1		300	15.0	2.5	blank	1.0	332.1556451320648	2.5000720024108887
16	62.45683813095093	fix_post	2		12	15.0	2.5	blank	1.0	334.6557171344757	0.09992790222167969
17	62.55676603317261	fix_pre	0		120	16.0	2.5	/experiments/knapen_aot/videos/S_yt-H2y1th4WaWU_51.mp4	0.0	334.7556450366974	0.9999980926513672
17	63.556764125823975	movie	1		299	16.0	2.5	/experiments/knapen_aot/videos/S_yt-H2y1th4WaWU_51.mp4	0.0	335.75564312934875	2.5000529289245605
17	66.05681705474854	fix_post	2		12	16.0	2.5	/experiments/knapen_aot/videos/S_yt-H2y1th4WaWU_51.mp4	0.0	338.2556960582733	0.09987306594848633
18	66.15669012069702	fix_pre	0		120	17.0	2.5	/experiments/knapen_aot/videos/S_production_ID_4820331.mp4	0.0	338.3555691242218	1.0000410079956055
18	67.15673112869263	movie	1		118	17.0	2.5	/experiments/knapen_aot/videos/S_production_ID_4820331.mp4	0.0	339.3556101322174	2.50010085105896
18	69.65683197975159	fix_post	2		12	17.0	2.5	/experiments/knapen_aot/videos/S_production_ID_4820331.mp4	0.0	341.85571098327637	0.10013008117675781
19	69.75696206092834	fix_pre	0		120	18.0	2.5	blank	1.0	341.9558410644531	0.9997830390930176
19	70.75674510002136	movie	1		300	18.0	2.5	blank	1.0	342.95562410354614	2.5000460147857666
19	73.25679111480713	fix_post	2		12	18.0	2.5	blank	1.0	345.4556701183319	0.09992003440856934
20	73.3567111492157	fix_pre	0		120	19.0	2.5	/experiments/knapen_aot/videos/S_yt-fAWPQRcrXl0_38.mp4	0.0	345.5555901527405	0.9999940395355225
20	74.35670518875122	movie	1		289	19.0	2.5	/experiments/knapen_aot/videos/S_yt-fAWPQRcrXl0_38.mp4	0.0	346.555584192276	2.500004768371582
20	76.8567099571228	fix_post	2		12	19.0	2.5	/experiments/knapen_aot/videos/S_yt-fAWPQRcrXl0_38.mp4	0.0	349.0555889606476	0.10000419616699219
21	76.9567141532898	fix_pre	0		120	20.0	2.5	blank	1.0	349.1555931568146	0.999985933303833
21	77.95670008659363	movie	1		300	20.0	2.5	blank	1.0	350.1555790901184	2.4999818801879883
21	80.45668196678162	fix_post	2		12	20.0	2.5	blank	1.0	352.6555609703064	0.10003018379211426
22	80.55671215057373	fix_pre	0		120	21.0	2.5	/experiments/knapen_aot/videos/S_yt-A-RhzHTz38g_21.mp4	0.0	352.7555911540985	0.9999399185180664
22	81.5566520690918	movie	1		299	21.0	2.5	/experiments/knapen_aot/videos/S_yt-A-RhzHTz38g_21.mp4	0.0	353.7555310726166	2.5
22	84.0566520690918	fix_post	2		12	21.0	2.5	/experiments/knapen_aot/videos/S_yt-A-RhzHTz38g_21.mp4	0.0	356.2555310726166	0.10002303123474121
23	84.15667510032654	fix_pre	0		119	22.0	2.5	blank	1.0	356.3555541038513	0.9999969005584717
23	85.15667200088501	movie	1		300	22.0	2.5	blank	1.0	357.3555510044098	2.4999921321868896
23	87.6566641330719	fix_post	2		12	22.0	2.5	blank	1.0	359.8555431365967	0.09995102882385254
24	87.75661516189575	fix_pre	0		120	23.0	2.5	/experiments/knapen_aot/videos/S_yt-oypn4VCTu6U_279.mp4	0.0	359.95549416542053	1.0000689029693604
24	88.75668406486511	movie	1		233	23.0	2.5	/experiments/knapen_aot/videos/S_yt-oypn4VCTu6U_279.mp4	0.0	360.9555630683899	2.499958038330078
24	91.25664210319519	fix_post	2		12	23.0	2.5	/experiments/knapen_aot/videos/S_yt-oypn4VCTu6U_279.mp4	0.0	363.45552110671997	0.10006308555603027
25	91.35670518875122	fix_pre	0		120	24.0	2.5	/experiments/knapen_aot/videos/S_ILSVRC2015_train_00661004.mp4	0.0	363.555584192276	0.9999167919158936
25	92.35662198066711	movie	1		294	24.0	2.5	/experiments/knapen_aot/videos/S_ILSVRC2015_train_00661004.mp4	0.0	364.5555009841919	2.500019073486328
25	94.85664105415344	fix_post	2		12	24.0	2.5	/experiments/knapen_aot/videos/S_ILSVRC2015_train_00661004.mp4	0.0	367.0555200576782	0.10043001174926758
26	94.95707106590271	fix_pre	0		120	25.0	2.5	/experiments/knapen_aot/videos/S_yt-xUPucH7kNAs_178.mp4	0.0	367.1559500694275	0.9995260238647461
26	95.95659708976746	movie	1		288	25.0	2.5	/experiments/knapen_aot/videos/S_yt-xUPucH7kNAs_178.mp4	0.0	368.15547609329224	2.5000460147857666
26	98.45664310455322	fix_post	2		12	25.0	2.5	/experiments/knapen_aot/videos/S_yt-xUPucH7kNAs_178.mp4	0.0	370.655522108078	0.10006093978881836
27	98.55670404434204	fix_pre	0		120	26.0	2.5	blank	1.0	370.7555830478668	0.999906063079834
27	99.55661010742188	movie	1		300	26.0	2.5	blank	1.0	371.75548911094666	2.50004506111145
27	102.05665516853333	fix_post	2		12	26.0	2.5	blank	1.0	374.2555341720581	0.09994101524353027
28	102.15659618377686	fix_pre	0		120	27.0	2.5	/experiments/knapen_aot/videos/S_yt-e5ua5Pj86E4_140.mp4	0.0	374.35547518730164	0.9999439716339111
28	103.15654015541077	movie	1		299	27.0	2.5	/experiments/knapen_aot/videos/S_yt-e5ua5Pj86E4_140.mp4	0.0	375.35541915893555	2.4999709129333496
28	105.65651106834412	fix_post	2		12	27.0	2.5	/experiments/knapen_aot/videos/S_yt-e5ua5Pj86E4_140.mp4	0.0	377.8553900718689	0.10008502006530762
29	105.75659608840942	fix_pre	0		120	28.0	2.5	/experiments/knapen_aot/videos/S_ILSVRC2015_train_00415002.mp4	0.0	377.9554750919342	0.999993085861206
29	106.75658917427063	movie	1		291	28.0	2.5	/experiments/knapen_aot/videos/S_ILSVRC2015_train_00415002.mp4	0.0	378.9554681777954	2.4999749660491943
29	109.25656414031982	fix_post	2		12	28.0	2.5	/experiments/knapen_aot/videos/S_ILSVRC2015_train_00415002.mp4	0.0	381.4554431438446	0.09988093376159668
30	109.35644507408142	fix_pre	0		120	29.0	2.5	/experiments/knapen_aot/videos/S_yt-a_awONsLFfE_107.mp4	0.0	381.5553240776062	1.0000889301300049
30	110.35653400421143	movie	1		300	29.0	2.5	/experiments/knapen_aot/videos/S_yt-a_awONsLFfE_107.mp4	0.0	382.5554130077362	2.499906063079834
30	112.85644006729126	fix_post	2		12	29.0	2.5	/experiments/knapen_aot/videos/S_yt-a_awONsLFfE_107.mp4	0.0	385.05531907081604	0.10054707527160645
31	112.95698714256287	fix_pre	0		120	30.0	2.5	/experiments/knapen_aot/videos/S_yt-65cexqxy5lU_35.mp4	0.0	385.15586614608765	0.9998559951782227
31	113.95684313774109	movie	1		295	30.0	2.5	/experiments/knapen_aot/videos/S_yt-65cexqxy5lU_35.mp4	0.0	386.15572214126587	2.4996728897094727
31	116.45651602745056	fix_post	2		12	30.0	2.5	/experiments/knapen_aot/videos/S_yt-65cexqxy5lU_35.mp4	0.0	388.65539503097534	0.09992694854736328
32	116.55644297599792	fix_pre	0		120	31.0	2.5	/experiments/knapen_aot/videos/S_yt-JxqSboqaUPY_5.mp4	0.0	388.7553219795227	1.000068187713623
32	117.55651116371155	movie	1		294	31.0	2.5	/experiments/knapen_aot/videos/S_yt-JxqSboqaUPY_5.mp4	0.0	389.7553901672363	2.49996280670166
32	120.05647397041321	fix_post	2		12	31.0	2.5	/experiments/knapen_aot/videos/S_yt-JxqSboqaUPY_5.mp4	0.0	392.255352973938	0.0999751091003418
33	120.15644907951355	fix_pre	0		120	32.0	2.5	/experiments/knapen_aot/videos/S_yt-Y32yFYRmNVU_22.mp4	0.0	392.35532808303833	1.0000340938568115
33	121.15648317337036	movie	1		228	32.0	2.5	/experiments/knapen_aot/videos/S_yt-Y32yFYRmNVU_22.mp4	0.0	393.35536217689514	2.5000898838043213
33	123.65657305717468	fix_post	2		12	32.0	2.5	/experiments/knapen_aot/videos/S_yt-Y32yFYRmNVU_22.mp4	0.0	395.85545206069946	0.09991693496704102
34	123.75648999214172	fix_pre	0		120	33.0	2.5	/experiments/knapen_aot/videos/S_yt-AJypa57HKqM_28.mp4	0.0	395.9553689956665	1.000035047531128
34	124.75652503967285	movie	1		237	33.0	2.5	/experiments/knapen_aot/videos/S_yt-AJypa57HKqM_28.mp4	0.0	396.95540404319763	2.5000040531158447
34	127.2565290927887	fix_post	2		12	33.0	2.5	/experiments/knapen_aot/videos/S_yt-AJypa57HKqM_28.mp4	0.0	399.4554080963135	0.10007095336914062
35	127.35660004615784	fix_pre	0		120	34.0	2.5	/experiments/knapen_aot/videos/S_yt-YWfInCviN1s_126.mp4	0.0	399.5554790496826	0.9998531341552734
35	128.3564531803131	movie	1		290	34.0	2.5	/experiments/knapen_aot/videos/S_yt-YWfInCviN1s_126.mp4	0.0	400.5553321838379	2.5000438690185547
35	130.85649704933167	fix_post	2		12	34.0	2.5	/experiments/knapen_aot/videos/S_yt-YWfInCviN1s_126.mp4	0.0	403.05537605285645	0.10023999214172363
36	130.9567370414734	fix_pre	0		120	35.0	2.5	/experiments/knapen_aot/videos/S_yt-Uih643A1YtA_110.mp4	0.0	403.15561604499817	1.0000269412994385
36	131.95676398277283	movie	1		292	35.0	2.5	/experiments/knapen_aot/videos/S_yt-Uih643A1YtA_110.mp4	0.0	404.1556429862976	2.499603033065796
36	134.45636701583862	fix_post	2		12	35.0	2.5	/experiments/knapen_aot/videos/S_yt-Uih643A1YtA_110.mp4	0.0	406.6552460193634	0.100128173828125
37	134.55649518966675	fix_pre	0		120	36.0	2.5	/experiments/knapen_aot/videos/S_ILSVRC2015_train_00552000.mp4	0.0	406.7553741931915	0.9998798370361328
37	135.55637502670288	movie	1		193	36.0	2.5	/experiments/knapen_aot/videos/S_ILSVRC2015_train_00552000.mp4	0.0	407.75525403022766	2.716593027114868
37	138.27296805381775	fix_post	2		0	36.0	2.5	/experiments/knapen_aot/videos/S_ILSVRC2015_train_00552000.mp4	0.0	410.47184705734253	0.002177000045776367
38	138.27514505386353	fix_pre	0		106	37.0	2.5	/experiments/knapen_aot/videos/S_yt-9PTQ4U4oPUU_243.mp4	0.0	410.4740240573883	1.3566300868988037
38	139.63177514076233	movie	1		149	37.0	2.5	/experiments/knapen_aot/videos/S_yt-9PTQ4U4oPUU_243.mp4	0.0	411.8306541442871	2.024919033050537
38	141.65669417381287	fix_post	2		12	37.0	2.5	/experiments/knapen_aot/videos/S_yt-9PTQ4U4oPUU_243.mp4	0.0	413.85557317733765	0.09978699684143066
39	141.7564811706543	fix_pre	0		120	38.0	2.5	/experiments/knapen_aot/videos/S_yt-VypeVQ7gJ_k_578.mp4	0.0	413.9553601741791	0.9998879432678223
39	142.75636911392212	movie	1		280	38.0	2.5	/experiments/knapen_aot/videos/S_yt-VypeVQ7gJ_k_578.mp4	0.0	414.9552481174469	2.500041961669922
39	145.25641107559204	fix_post	2		12	38.0	2.5	/experiments/knapen_aot/videos/S_yt-VypeVQ7gJ_k_578.mp4	0.0	417.4552900791168	0.0999441146850586
40	145.3563551902771	fix_pre	0		120	39.0	2.5	/experiments/knapen_aot/videos/S_yt-DpLc4e4bpu0_1467.mp4	0.0	417.5552341938019	1.0000720024108887
40	146.356427192688	movie	1		291	39.0	2.5	/experiments/knapen_aot/videos/S_yt-DpLc4e4bpu0_1467.mp4	0.0	418.55530619621277	2.499842882156372
40	148.85627007484436	fix_post	2		12	39.0	2.5	/experiments/knapen_aot/videos/S_yt-DpLc4e4bpu0_1467.mp4	0.0	421.05514907836914	0.10036206245422363
41	148.95663213729858	fix_pre	0		120	40.0	2.5	/experiments/knapen_aot/videos/S_yt-sBdvBO-TPNM_8.mp4	0.0	421.15551114082336	0.9998629093170166
41	149.9564950466156	movie	1		287	40.0	2.5	/experiments/knapen_aot/videos/S_yt-sBdvBO-TPNM_8.mp4	0.0	422.1553740501404	2.499819040298462
41	152.45631408691406	fix_post	2		12	40.0	2.5	/experiments/knapen_aot/videos/S_yt-sBdvBO-TPNM_8.mp4	0.0	424.65519309043884	0.10006189346313477
42	152.5563759803772	fix_pre	0		120	41.0	2.5	blank	1.0	424.755254983902	0.9999971389770508
42	153.55637311935425	movie	1		300	41.0	2.5	blank	1.0	425.755252122879	2.499889850616455
42	156.0562629699707	fix_post	2		12	41.0	2.5	blank	1.0	428.2551419734955	0.10008001327514648
43	156.15634298324585	fix_pre	0		120	42.0	2.5	/experiments/knapen_aot/videos/S_yt-4slVHFGPwEs_744.mp4	0.0	428.35522198677063	0.9999961853027344
43	157.15633916854858	movie	1		293	42.0	2.5	/experiments/knapen_aot/videos/S_yt-4slVHFGPwEs_744.mp4	0.0	429.35521817207336	2.4999849796295166
43	159.6563241481781	fix_post	2		12	42.0	2.5	/experiments/knapen_aot/videos/S_yt-4slVHFGPwEs_744.mp4	0.0	431.8552031517029	0.09988188743591309
44	159.756206035614	fix_pre	0		120	43.0	2.5	/experiments/knapen_aot/videos/S_yt-mOQJwaPQbMg_5.mp4	0.0	431.9550850391388	1.0000770092010498
44	160.75628304481506	movie	1		294	43.0	2.5	/experiments/knapen_aot/videos/S_yt-mOQJwaPQbMg_5.mp4	0.0	432.95516204833984	2.4999570846557617
44	163.25624012947083	fix_post	2		12	43.0	2.5	/experiments/knapen_aot/videos/S_yt-mOQJwaPQbMg_5.mp4	0.0	435.4551191329956	0.10005402565002441
45	163.35629415512085	fix_pre	0		120	44.0	2.5	/experiments/knapen_aot/videos/S_yt-q8mfIumbHuo_84.mp4	0.0	435.55517315864563	0.9999518394470215
45	164.35624599456787	movie	1		298	44.0	2.5	/experiments/knapen_aot/videos/S_yt-q8mfIumbHuo_84.mp4	0.0	436.55512499809265	2.5000569820404053
45	166.85630297660828	fix_post	2		12	44.0	2.5	/experiments/knapen_aot/videos/S_yt-q8mfIumbHuo_84.mp4	0.0	439.05518198013306	0.10004806518554688
46	166.95635104179382	fix_pre	0		120	45.0	2.5	/experiments/knapen_aot/videos/S_yt-jovPh9BdlYI_215.mp4	0.0	439.1552300453186	1.0000319480895996
46	167.95638298988342	movie	1		158	45.0	2.5	/experiments/knapen_aot/videos/S_yt-jovPh9BdlYI_215.mp4	0.0	440.1552619934082	2.5003840923309326
46	170.45676708221436	fix_post	2		12	45.0	2.5	/experiments/knapen_aot/videos/S_yt-jovPh9BdlYI_215.mp4	0.0	442.65564608573914	0.09993505477905273
47	170.5567021369934	fix_pre	0		120	46.0	2.5	/experiments/knapen_aot/videos/S_yt-jsG6vM9Lkoc_318.mp4	0.0	442.7555811405182	0.9995508193969727
47	171.55625295639038	movie	1		118	46.0	2.5	/experiments/knapen_aot/videos/S_yt-jsG6vM9Lkoc_318.mp4	0.0	443.75513195991516	2.608767032623291
47	174.16501998901367	fix_post	2		0	46.0	2.5	/experiments/knapen_aot/videos/S_yt-jsG6vM9Lkoc_318.mp4	0.0	446.36389899253845	0.002122163772583008
48	174.16714215278625	fix_pre	0		119	47.0	2.5	/experiments/knapen_aot/videos/S_ILSVRC2015_train_00536000.mp4	0.0	446.36602115631104	0.9893109798431396
48	175.1564531326294	movie	1		286	47.0	2.5	/experiments/knapen_aot/videos/S_ILSVRC2015_train_00536000.mp4	0.0	447.3553321361542	2.499829053878784
48	177.65628218650818	fix_post	2		12	47.0	2.5	/experiments/knapen_aot/videos/S_ILSVRC2015_train_00536000.mp4	0.0	449.85516119003296	0.10000300407409668
49	177.75628519058228	fix_pre	0		120	48.0	2.5	/experiments/knapen_aot/videos/S_yt-DfgpLIP0jnk_105.mp4	0.0	449.95516419410706	1.4916868209838867
49	179.24797201156616	movie	1		156	48.0	2.5	/experiments/knapen_aot/videos/S_yt-DfgpLIP0jnk_105.mp4	0.0	451.44685101509094	2.0086610317230225
49	181.25663304328918	fix_post	2		12	48.0	2.5	/experiments/knapen_aot/videos/S_yt-DfgpLIP0jnk_105.mp4	0.0	453.45551204681396	0.10000896453857422
50	181.35664200782776	fix_pre	0		120	49.0	2.5	/experiments/knapen_aot/videos/S_yt-ePxv64kEqa0_177.mp4	0.0	453.55552101135254	0.999567985534668
50	182.35620999336243	movie	1		158	49.0	2.5	/experiments/knapen_aot/videos/S_yt-ePxv64kEqa0_177.mp4	0.0	454.5550889968872	2.500610113143921
50	184.85682010650635	fix_post	2		12	49.0	2.5	/experiments/knapen_aot/videos/S_yt-ePxv64kEqa0_177.mp4	0.0	457.0556991100311	0.09982895851135254
51	184.9566490650177	fix_pre	0		120	50.0	2.5	/experiments/knapen_aot/videos/S_yt-Pd3_4Z2tbFU_47.mp4	0.0	457.1555280685425	0.9996800422668457
51	185.95632910728455	movie	1		98	50.0	2.5	/experiments/knapen_aot/videos/S_yt-Pd3_4Z2tbFU_47.mp4	0.0	458.1552081108093	2.4999070167541504
51	188.4562361240387	fix_post	2		12	50.0	2.5	/experiments/knapen_aot/videos/S_yt-Pd3_4Z2tbFU_47.mp4	0.0	460.6551151275635	0.10005998611450195
52	188.5562961101532	fix_pre	0		120	51.0	2.5	/experiments/knapen_aot/videos/S_yt-A1XT1fT1c8w_24.mp4	0.0	460.755175113678	1.0002169609069824
52	189.55651307106018	movie	1		160	51.0	2.5	/experiments/knapen_aot/videos/S_yt-A1XT1fT1c8w_24.mp4	0.0	461.75539207458496	2.9496169090270996
52	192.50612998008728	fix_post	2		0	51.0	2.5	/experiments/knapen_aot/videos/S_yt-A1XT1fT1c8w_24.mp4	0.0	464.70500898361206	0.0024340152740478516
53	192.50856399536133	fix_pre	0		78	52.0	2.5	blank	1.0	464.7074429988861	0.6478321552276611
53	193.156396150589	movie	1		300	52.0	2.5	blank	1.0	465.35527515411377	2.4997899532318115
53	195.6561861038208	fix_post	2		12	52.0	2.5	blank	1.0	467.8550651073456	0.10004186630249023
54	195.7562279701233	fix_pre	0		120	53.0	2.5	/experiments/knapen_aot/videos/S_yt-cILZ_cB3_so_73.mp4	0.0	467.95510697364807	0.9999160766601562
54	196.75614404678345	movie	1		294	53.0	2.5	/experiments/knapen_aot/videos/S_yt-cILZ_cB3_so_73.mp4	0.0	468.9550230503082	2.4999821186065674
54	199.25612616539001	fix_post	2		12	53.0	2.5	/experiments/knapen_aot/videos/S_yt-cILZ_cB3_so_73.mp4	0.0	471.4550051689148	0.1000359058380127
55	199.35616207122803	fix_pre	0		120	54.0	2.5	/experiments/knapen_aot/videos/S_yt-gbDSSDcRlg4_31.mp4	0.0	471.5550410747528	0.9999539852142334
55	200.35611605644226	movie	1		221	54.0	2.5	/experiments/knapen_aot/videos/S_yt-gbDSSDcRlg4_31.mp4	0.0	472.55499505996704	2.499948024749756
55	202.85606408119202	fix_post	2		12	54.0	2.5	/experiments/knapen_aot/videos/S_yt-gbDSSDcRlg4_31.mp4	0.0	475.0549430847168	0.10008788108825684
56	202.95615196228027	fix_pre	0		120	55.0	2.5	/experiments/knapen_aot/videos/S_yt-MXCxHM_Ms8A_15.mp4	0.0	475.15503096580505	0.9998672008514404
56	203.9560191631317	movie	1		255	55.0	2.5	/experiments/knapen_aot/videos/S_yt-MXCxHM_Ms8A_15.mp4	0.0	476.1548981666565	2.691743850708008
56	206.64776301383972	fix_post	2		0	55.0	2.5	/experiments/knapen_aot/videos/S_yt-MXCxHM_Ms8A_15.mp4	0.0	478.8466420173645	0.002153158187866211
57	206.6499161720276	fix_pre	0		109	56.0	2.5	/experiments/knapen_aot/videos/S_yt-pB-AcJ71tzA_20.mp4	0.0	478.84879517555237	0.906160831451416
57	207.556077003479	movie	1		295	56.0	2.5	/experiments/knapen_aot/videos/S_yt-pB-AcJ71tzA_20.mp4	0.0	479.7549560070038	2.499958038330078
57	210.05603504180908	fix_post	2		12	56.0	2.5	/experiments/knapen_aot/videos/S_yt-pB-AcJ71tzA_20.mp4	0.0	482.25491404533386	0.10004115104675293
58	210.15607619285583	fix_pre	0		120	57.0	2.5	/experiments/knapen_aot/videos/S_yt-DO1vncSoiJk_58.mp4	0.0	482.3549551963806	1.0000219345092773
58	211.1560981273651	movie	1		294	57.0	2.5	/experiments/knapen_aot/videos/S_yt-DO1vncSoiJk_58.mp4	0.0	483.3549771308899	2.4999759197235107
58	213.65607404708862	fix_post	2		12	57.0	2.5	/experiments/knapen_aot/videos/S_yt-DO1vncSoiJk_58.mp4	0.0	485.8549530506134	0.10003209114074707
59	213.75610613822937	fix_pre	0		120	58.0	2.5	/experiments/knapen_aot/videos/S_yt-ChAhBD9LrsU_223.mp4	0.0	485.95498514175415	0.9999759197235107
59	214.75608205795288	movie	1		228	58.0	2.5	/experiments/knapen_aot/videos/S_yt-ChAhBD9LrsU_223.mp4	0.0	486.95496106147766	2.499922037124634
59	217.25600409507751	fix_post	2		12	58.0	2.5	/experiments/knapen_aot/videos/S_yt-ChAhBD9LrsU_223.mp4	0.0	489.4548830986023	0.10003399848937988
60	217.3560380935669	fix_pre	0		120	59.0	2.5	/experiments/knapen_aot/videos/S_yt-P2RwcXMKIbQ_1.mp4	0.0	489.5549170970917	1.0000250339508057
60	218.3560631275177	movie	1		291	59.0	2.5	/experiments/knapen_aot/videos/S_yt-P2RwcXMKIbQ_1.mp4	0.0	490.5549421310425	2.9499549865722656
60	221.30601811408997	fix_post	2		0	59.0	2.5	/experiments/knapen_aot/videos/S_yt-P2RwcXMKIbQ_1.mp4	0.0	493.50489711761475	0.0031888484954833984
61	221.30920696258545	fix_pre	0		78	60.0	2.5	/experiments/knapen_aot/videos/S_2E67nCgRCGk_75.mp4	0.0	493.50808596611023	0.6468160152435303
61	221.95602297782898	movie	1		289	60.0	2.5	/experiments/knapen_aot/videos/S_2E67nCgRCGk_75.mp4	0.0	494.15490198135376	2.5000131130218506
61	224.45603609085083	fix_post	2		12	60.0	2.5	/experiments/knapen_aot/videos/S_2E67nCgRCGk_75.mp4	0.0	496.6549150943756	0.10002589225769043
62	224.55606198310852	fix_pre	0		120	61.0	2.5	/experiments/knapen_aot/videos/S_yt-2U5u3lLJx5M_7.mp4	0.0	496.7549409866333	1.0002410411834717
62	225.556303024292	movie	1		293	61.0	2.5	/experiments/knapen_aot/videos/S_yt-2U5u3lLJx5M_7.mp4	0.0	497.7551820278168	2.4997079372406006
62	228.0560109615326	fix_post	2		12	61.0	2.5	/experiments/knapen_aot/videos/S_yt-2U5u3lLJx5M_7.mp4	0.0	500.2548899650574	0.10005807876586914
63	228.15606904029846	fix_pre	0		120	62.0	2.5	/experiments/knapen_aot/videos/S_yt-RL1chIcbTPQ_11.mp4	0.0	500.35494804382324	0.9999220371246338
63	229.1559910774231	movie	1		156	62.0	2.5	/experiments/knapen_aot/videos/S_yt-RL1chIcbTPQ_11.mp4	0.0	501.3548700809479	2.5002999305725098
63	231.6562910079956	fix_post	2		12	62.0	2.5	/experiments/knapen_aot/videos/S_yt-RL1chIcbTPQ_11.mp4	0.0	503.8551700115204	0.09970903396606445
64	231.75600004196167	fix_pre	0		120	63.0	2.5	/experiments/knapen_aot/videos/S_yt-u0N1IsXxLM4_103.mp4	0.0	503.95487904548645	0.9999711513519287
64	232.7559711933136	movie	1		293	63.0	2.5	/experiments/knapen_aot/videos/S_yt-u0N1IsXxLM4_103.mp4	0.0	504.9548501968384	2.5000038146972656
64	235.25597500801086	fix_post	2		12	63.0	2.5	/experiments/knapen_aot/videos/S_yt-u0N1IsXxLM4_103.mp4	0.0	507.45485401153564	0.10000801086425781
65	235.35598301887512	fix_pre	0		120	64.0	2.5	/experiments/knapen_aot/videos/S_yt-VyVvEvP6MRM_124.mp4	0.0	507.5548620223999	1.0000159740447998
65	236.35599899291992	movie	1		296	64.0	2.5	/experiments/knapen_aot/videos/S_yt-VyVvEvP6MRM_124.mp4	0.0	508.5548779964447	2.500066041946411
65	238.85606503486633	fix_post	2		12	64.0	2.5	/experiments/knapen_aot/videos/S_yt-VyVvEvP6MRM_124.mp4	0.0	511.0549440383911	0.0999140739440918
66	238.95597910881042	fix_pre	0		120	65.0	2.5	/experiments/knapen_aot/videos/S_yt-GBqXIFjZf8w_28.mp4	0.0	511.1548581123352	0.999953031539917
66	239.95593214035034	movie	1		232	65.0	2.5	/experiments/knapen_aot/videos/S_yt-GBqXIFjZf8w_28.mp4	0.0	512.1548111438751	2.5002388954162598
66	242.4561710357666	fix_post	2		12	65.0	2.5	/experiments/knapen_aot/videos/S_yt-GBqXIFjZf8w_28.mp4	0.0	514.6550500392914	0.09977507591247559
67	242.55594611167908	fix_pre	0		120	66.0	2.5	blank	1.0	514.7548251152039	1.0000059604644775
67	243.55595207214355	movie	1		300	66.0	2.5	blank	1.0	515.7548310756683	2.500044107437134
67	246.0559961795807	fix_post	2		12	66.0	2.5	blank	1.0	518.2548751831055	0.09993600845336914
68	246.15593218803406	fix_pre	0		120	67.0	2.5	/experiments/knapen_aot/videos/S_yt-hjqjWlzPRjY_76.mp4	0.0	518.3548111915588	1.0000758171081543
68	247.1560080051422	movie	1		224	67.0	2.5	/experiments/knapen_aot/videos/S_yt-hjqjWlzPRjY_76.mp4	0.0	519.354887008667	2.499953031539917
68	249.65596103668213	fix_post	2		12	67.0	2.5	/experiments/knapen_aot/videos/S_yt-hjqjWlzPRjY_76.mp4	0.0	521.8548400402069	0.09998798370361328
69	249.75594902038574	fix_pre	0		120	68.0	2.5	/experiments/knapen_aot/videos/S_yt-bWXohhodbjg_86.mp4	0.0	521.9548280239105	0.9999160766601562
69	250.7558650970459	movie	1		167	68.0	2.5	/experiments/knapen_aot/videos/S_yt-bWXohhodbjg_86.mp4	0.0	522.9547441005707	2.500092029571533
69	253.25595712661743	fix_post	2		12	68.0	2.5	/experiments/knapen_aot/videos/S_yt-bWXohhodbjg_86.mp4	0.0	525.4548361301422	0.09996294975280762
70	253.35592007637024	fix_pre	0		120	69.0	2.5	/experiments/knapen_aot/videos/S_CHWw361oMSQ_195.mp4	0.0	525.554799079895	1.0000109672546387
70	254.35593104362488	movie	1		228	69.0	2.5	/experiments/knapen_aot/videos/S_CHWw361oMSQ_195.mp4	0.0	526.5548100471497	2.499962091445923
70	256.8558931350708	fix_post	2		12	69.0	2.5	/experiments/knapen_aot/videos/S_CHWw361oMSQ_195.mp4	0.0	529.0547721385956	0.1000218391418457
71	256.95591497421265	fix_pre	0		120	70.0	2.5	/experiments/knapen_aot/videos/S_yt-cWBQB8CxsVY_69.mp4	0.0	529.1547939777374	0.9999561309814453
71	257.9558711051941	movie	1		297	70.0	2.5	/experiments/knapen_aot/videos/S_yt-cWBQB8CxsVY_69.mp4	0.0	530.1547501087189	2.500067949295044
71	260.45593905448914	fix_post	2		12	70.0	2.5	/experiments/knapen_aot/videos/S_yt-cWBQB8CxsVY_69.mp4	0.0	532.6548180580139	0.09997105598449707
72	260.55591011047363	fix_pre	0		120	71.0	2.5	/experiments/knapen_aot/videos/S_yt-g_RCws799LQ_52.mp4	0.0	532.7547891139984	0.9999480247497559
72	261.5558581352234	movie	1		289	71.0	2.5	/experiments/knapen_aot/videos/S_yt-g_RCws799LQ_52.mp4	0.0	533.7547371387482	2.500006914138794
72	264.0558650493622	fix_post	2		12	71.0	2.5	/experiments/knapen_aot/videos/S_yt-g_RCws799LQ_52.mp4	0.0	536.254744052887	0.10018396377563477
73	264.1560490131378	fix_pre	0		120	72.0	2.5	/experiments/knapen_aot/videos/S_ILSVRC2015_train_00611000.mp4	0.0	536.3549280166626	0.9999420642852783
73	265.1559910774231	movie	1		295	72.0	2.5	/experiments/knapen_aot/videos/S_ILSVRC2015_train_00611000.mp4	0.0	537.3548700809479	2.5001258850097656
73	267.65611696243286	fix_post	2		12	72.0	2.5	/experiments/knapen_aot/videos/S_ILSVRC2015_train_00611000.mp4	0.0	539.8549959659576	0.09971213340759277
74	267.75582909584045	fix_pre	0		120	73.0	2.5	/experiments/knapen_aot/videos/S_yt-p-kbRhTdyiQ_31.mp4	0.0	539.9547080993652	0.9999918937683105
74	268.75582098960876	movie	1		294	73.0	2.5	/experiments/knapen_aot/videos/S_yt-p-kbRhTdyiQ_31.mp4	0.0	540.9546999931335	2.500012159347534
74	271.2558331489563	fix_post	2		12	73.0	2.5	/experiments/knapen_aot/videos/S_yt-p-kbRhTdyiQ_31.mp4	0.0	543.4547121524811	0.10003781318664551
75	271.35587096214294	fix_pre	0		120	74.0	2.5	/experiments/knapen_aot/videos/S_yt-1VTxnf2hZ0w_675.mp4	0.0	543.5547499656677	0.9999690055847168
75	272.35583996772766	movie	1		297	74.0	2.5	/experiments/knapen_aot/videos/S_yt-1VTxnf2hZ0w_675.mp4	0.0	544.5547189712524	2.4999711513519287
75	274.8558111190796	fix_post	2		12	74.0	2.5	/experiments/knapen_aot/videos/S_yt-1VTxnf2hZ0w_675.mp4	0.0	547.0546901226044	0.09996199607849121
76	274.9557731151581	fix_pre	0		120	75.0	2.5	/experiments/knapen_aot/videos/S_ILSVRC2015_train_00707000.mp4	0.0	547.1546521186829	1.000067949295044
76	275.9558410644531	movie	1		295	75.0	2.5	/experiments/knapen_aot/videos/S_ILSVRC2015_train_00707000.mp4	0.0	548.1547200679779	2.4999749660491943
76	278.4558160305023	fix_post	2		12	75.0	2.5	/experiments/knapen_aot/videos/S_ILSVRC2015_train_00707000.mp4	0.0	550.6546950340271	0.09998893737792969
77	278.55580496788025	fix_pre	0		120	76.0	2.5	/experiments/knapen_aot/videos/S_yt-D9iwtEHx8M0_20.mp4	0.0	550.754683971405	1.0000481605529785
77	279.5558531284332	movie	1		269	76.0	2.5	/experiments/knapen_aot/videos/S_yt-D9iwtEHx8M0_20.mp4	0.0	551.754732131958	2.7418129444122314
77	282.29766607284546	fix_post	2		0	76.0	2.5	/experiments/knapen_aot/videos/S_yt-D9iwtEHx8M0_20.mp4	0.0	554.4965450763702	0.0034170150756835938
78	282.30108308792114	fix_pre	0		103	77.0	2.5	/experiments/knapen_aot/videos/S_yt-2wb0b0pdSxU_59.mp4	0.0	554.4999620914459	0.8546760082244873
78	283.15575909614563	movie	1		122	77.0	2.5	/experiments/knapen_aot/videos/S_yt-2wb0b0pdSxU_59.mp4	0.0	555.3546380996704	2.6085150241851807
78	285.7642741203308	fix_post	2		0	77.0	2.5	/experiments/knapen_aot/videos/S_yt-2wb0b0pdSxU_59.mp4	0.0	557.9631531238556	0.002212047576904297
79	285.7664861679077	fix_pre	0		119	78.0	2.5	/experiments/knapen_aot/videos/S_yt-NqZHX-eOVUA_35.mp4	0.0	557.9653651714325	0.9892628192901611
79	286.7557489871979	movie	1		294	78.0	2.5	/experiments/knapen_aot/videos/S_yt-NqZHX-eOVUA_35.mp4	0.0	558.9546279907227	2.4999840259552
79	289.2557330131531	fix_post	2		12	78.0	2.5	/experiments/knapen_aot/videos/S_yt-NqZHX-eOVUA_35.mp4	0.0	561.4546120166779	0.1001591682434082
80	289.3558921813965	fix_pre	0		120	79.0	2.5	blank	1.0	561.5547711849213	0.9998579025268555
80	290.35575008392334	movie	1		300	79.0	2.5	blank	1.0	562.5546290874481	2.4999709129333496
80	292.8557209968567	fix_post	2		12	79.0	2.5	blank	1.0	565.0546000003815	0.1000051498413086
81	292.955726146698	fix_pre	0		120	80.0	2.5	/experiments/knapen_aot/videos/S_flickr-thelastdon-8662706978_3.mp4	0.0	565.1546051502228	0.9999058246612549
81	293.95563197135925	movie	1		154	80.0	2.5	/experiments/knapen_aot/videos/S_flickr-thelastdon-8662706978_3.mp4	0.0	566.154510974884	2.500066041946411
81	296.45569801330566	fix_post	2		12	80.0	2.5	/experiments/knapen_aot/videos/S_flickr-thelastdon-8662706978_3.mp4	0.0	568.6545770168304	0.10002994537353516
82	296.5557279586792	fix_pre	0		120	81.0	2.5	/experiments/knapen_aot/videos/S_yt-e9ttJw0BUuU_40.mp4	0.0	568.754606962204	0.9999520778656006
82	297.5556800365448	movie	1		291	81.0	2.5	/experiments/knapen_aot/videos/S_yt-e9ttJw0BUuU_40.mp4	0.0	569.7545590400696	2.500072956085205
82	300.05575299263	fix_post	2		12	81.0	2.5	/experiments/knapen_aot/videos/S_yt-e9ttJw0BUuU_40.mp4	0.0	572.2546319961548	0.0998830795288086
83	300.1556360721588	fix_pre	0		120	82.0	2.5	/experiments/knapen_aot/videos/S_yt-Z1ozMh4szTk_13.mp4	0.0	572.3545150756836	1.0000529289245605
83	301.1556890010834	movie	1		295	82.0	2.5	/experiments/knapen_aot/videos/S_yt-Z1ozMh4szTk_13.mp4	0.0	573.3545680046082	2.499951124191284
83	303.65564012527466	fix_post	2		12	82.0	2.5	/experiments/knapen_aot/videos/S_yt-Z1ozMh4szTk_13.mp4	0.0	575.8545191287994	0.10007286071777344
84	303.75571298599243	fix_pre	0		120	83.0	2.5	/experiments/knapen_aot/videos/S_yt-ihCTIoE7qsk_730.mp4	0.0	575.9545919895172	0.9999079704284668
84	304.7556209564209	movie	1		295	83.0	2.5	/experiments/knapen_aot/videos/S_yt-ihCTIoE7qsk_730.mp4	0.0	576.9544999599457	2.5000510215759277
84	307.2556719779968	fix_post	2		12	83.0	2.5	/experiments/knapen_aot/videos/S_yt-ihCTIoE7qsk_730.mp4	0.0	579.4545509815216	0.09995412826538086
85	307.3556261062622	fix_pre	0		120	84.0	2.5	blank	1.0	579.554505109787	1.000079870223999
85	308.3557059764862	movie	1		300	84.0	2.5	blank	1.0	580.554584980011	2.4999539852142334
85	310.85565996170044	fix_post	2		12	84.0	2.5	blank	1.0	583.0545389652252	0.09997105598449707
86	310.95563101768494	fix_pre	0		120	85.0	2.5	/experiments/knapen_aot/videos/S_yt-PQYnj2BR17I_16.mp4	0.0	583.1545100212097	1.000020980834961
86	311.9556519985199	movie	1		292	85.0	2.5	/experiments/knapen_aot/videos/S_yt-PQYnj2BR17I_16.mp4	0.0	584.1545310020447	2.4999849796295166
86	314.4556369781494	fix_post	2		12	85.0	2.5	/experiments/knapen_aot/videos/S_yt-PQYnj2BR17I_16.mp4	0.0	586.6545159816742	0.10000014305114746
87	314.55563712120056	fix_pre	0		120	86.0	2.5	/experiments/knapen_aot/videos/S_yt-be6x_357tjE_41.mp4	0.0	586.7545161247253	1.0000109672546387
87	315.5556480884552	movie	1		285	86.0	2.5	/experiments/knapen_aot/videos/S_yt-be6x_357tjE_41.mp4	0.0	587.75452709198	2.4999969005584717
87	318.0556449890137	fix_post	2		12	86.0	2.5	/experiments/knapen_aot/videos/S_yt-be6x_357tjE_41.mp4	0.0	590.2545239925385	0.09997320175170898
88	318.1556181907654	fix_pre	0		120	87.0	2.5	/experiments/knapen_aot/videos/S_ILSVRC2015_train_00416000.mp4	0.0	590.3544971942902	1.0000038146972656
88	319.15562200546265	movie	1		231	87.0	2.5	/experiments/knapen_aot/videos/S_ILSVRC2015_train_00416000.mp4	0.0	591.3545010089874	2.499953031539917
88	321.65557503700256	fix_post	2		12	87.0	2.5	/experiments/knapen_aot/videos/S_ILSVRC2015_train_00416000.mp4	0.0	593.8544540405273	0.10008597373962402
89	321.7556610107422	fix_pre	0		120	88.0	2.5	/experiments/knapen_aot/videos/S_yt-gbDSSDcRlg4_19.mp4	0.0	593.954540014267	1.0000581741333008
89	322.7557191848755	movie	1		294	88.0	2.5	/experiments/knapen_aot/videos/S_yt-gbDSSDcRlg4_19.mp4	0.0	594.9545981884003	2.5000789165496826
89	325.25579810142517	fix_post	2		12	88.0	2.5	/experiments/knapen_aot/videos/S_yt-gbDSSDcRlg4_19.mp4	0.0	597.45467710495	0.09971094131469727
90	325.35550904273987	fix_pre	0		120	89.0	2.5	/experiments/knapen_aot/videos/S_yt-PDNWrJ2bZ6I_79.mp4	0.0	597.5543880462646	1.4834370613098145
90	326.8389461040497	movie	1		209	89.0	2.5	/experiments/knapen_aot/videos/S_yt-PDNWrJ2bZ6I_79.mp4	0.0	599.0378251075745	2.3332998752593994
90	329.1722459793091	fix_post	2		0	89.0	2.5	/experiments/knapen_aot/videos/S_yt-PDNWrJ2bZ6I_79.mp4	0.0	601.3711249828339	0.0022292137145996094
91	329.1744751930237	fix_pre	0		94	90.0	2.5	/experiments/knapen_aot/videos/S_yt-iCGU1R75BZo_52.mp4	0.0	601.3733541965485	1.2644309997558594
91	330.43890619277954	movie	1		212	90.0	2.5	/experiments/knapen_aot/videos/S_yt-iCGU1R75BZo_52.mp4	0.0	602.6377851963043	2.016741991043091
91	332.45564818382263	fix_post	2		12	90.0	2.5	/experiments/knapen_aot/videos/S_yt-iCGU1R75BZo_52.mp4	0.0	604.6545271873474	0.09994983673095703
92	332.5555980205536	fix_pre	0		120	91.0	2.5	blank	1.0	604.7544770240784	0.9999020099639893
92	333.5555000305176	movie	1		300	91.0	2.5	blank	1.0	605.7543790340424	2.500005006790161
92	336.05550503730774	fix_post	2		12	91.0	2.5	blank	1.0	608.2543840408325	0.09994697570800781
93	336.15545201301575	fix_pre	0		120	92.0	2.5	/experiments/knapen_aot/videos/S_ILSVRC2015_train_00768002.mp4	0.0	608.3543310165405	1.000723123550415
93	337.15617513656616	movie	1		299	92.0	2.5	/experiments/knapen_aot/videos/S_ILSVRC2015_train_00768002.mp4	0.0	609.3550541400909	2.499613046646118
93	339.6557881832123	fix_post	2		12	92.0	2.5	/experiments/knapen_aot/videos/S_ILSVRC2015_train_00768002.mp4	0.0	611.8546671867371	0.09972786903381348
94	339.7555160522461	fix_pre	0		120	93.0	2.5	/experiments/knapen_aot/videos/S_yt-cAFx29wS_xo_130.mp4	0.0	611.9543950557709	0.9999561309814453
94	340.75547218322754	movie	1		260	93.0	2.5	/experiments/knapen_aot/videos/S_yt-cAFx29wS_xo_130.mp4	0.0	612.9543511867523	2.768676996231079
94	343.5241491794586	fix_post	2		0	93.0	2.5	/experiments/knapen_aot/videos/S_yt-cAFx29wS_xo_130.mp4	0.0	615.7230281829834	0.0025789737701416016
95	343.52672815322876	fix_pre	0		100	94.0	2.5	/experiments/knapen_aot/videos/S_yt-58F4cMRhSw8_69.mp4	0.0	615.7256071567535	0.8307998180389404
95	344.3575279712677	movie	1		297	94.0	2.5	/experiments/knapen_aot/videos/S_yt-58F4cMRhSw8_69.mp4	0.0	616.5564069747925	2.4979500770568848
95	346.8554780483246	fix_post	2		12	94.0	2.5	/experiments/knapen_aot/videos/S_yt-58F4cMRhSw8_69.mp4	0.0	619.0543570518494	0.10000109672546387
96	346.95547914505005	fix_pre	0		120	95.0	2.5	/experiments/knapen_aot/videos/S_yt-5IEO9Gn5fZ4_59.mp4	0.0	619.1543581485748	1.0000529289245605
96	347.9555320739746	movie	1		266	95.0	2.5	/experiments/knapen_aot/videos/S_yt-5IEO9Gn5fZ4_59.mp4	0.0	620.1544110774994	2.7498860359191895
96	350.7054181098938	fix_post	2		0	95.0	2.5	/experiments/knapen_aot/videos/S_yt-5IEO9Gn5fZ4_59.mp4	0.0	622.9042971134186	0.002750873565673828
97	350.7081689834595	fix_pre	0		102	96.0	2.5	blank	1.0	622.9070479869843	0.8473050594329834
97	351.55547404289246	movie	1		300	96.0	2.5	blank	1.0	623.7543530464172	2.5000360012054443
97	354.0555100440979	fix_post	2		12	96.0	2.5	blank	1.0	626.2543890476227	0.09992408752441406
98	354.1554341316223	fix_pre	0		120	97.0	2.5	/experiments/knapen_aot/videos/S_yt-gCKmHV5tdSk_59.mp4	0.0	626.3543131351471	1.0008058547973633
98	355.1562399864197	movie	1		290	97.0	2.5	/experiments/knapen_aot/videos/S_yt-gCKmHV5tdSk_59.mp4	0.0	627.3551189899445	2.4991440773010254
98	357.6553840637207	fix_post	2		12	97.0	2.5	/experiments/knapen_aot/videos/S_yt-gCKmHV5tdSk_59.mp4	0.0	629.8542630672455	0.10005712509155273
99	357.75544118881226	fix_pre	0		120	98.0	2.5	/experiments/knapen_aot/videos/S_yt-16eN45838LU_255.mp4	0.0	629.954320192337	0.9999217987060547
99	358.7553629875183	movie	1		294	98.0	2.5	/experiments/knapen_aot/videos/S_yt-16eN45838LU_255.mp4	0.0	630.9542419910431	2.500080108642578
99	361.2554430961609	fix_post	2		12	98.0	2.5	/experiments/knapen_aot/videos/S_yt-16eN45838LU_255.mp4	0.0	633.4543220996857	0.10006308555603027
100	361.3555061817169	fix_pre	0		120	99.0	2.5	/experiments/knapen_aot/videos/S_yt-NVYfkMFUxMk_466.mp4	0.0	633.5543851852417	0.9999148845672607
100	362.3554210662842	movie	1		292	99.0	2.5	/experiments/knapen_aot/videos/S_yt-NVYfkMFUxMk_466.mp4	0.0	634.554300069809	2.4999659061431885
100	364.85538697242737	fix_post	2		12	99.0	2.5	/experiments/knapen_aot/videos/S_yt-NVYfkMFUxMk_466.mp4	0.0	637.0542659759521	0.10019612312316895
101	364.95558309555054	fix_pre	0		120	100.0	2.5	/experiments/knapen_aot/videos/S_yt-iuqdW5OLSzc_6.mp4	0.0	637.1544620990753	0.9998230934143066
101	365.95540618896484	movie	1		153	100.0	2.5	/experiments/knapen_aot/videos/S_yt-iuqdW5OLSzc_6.mp4	0.0	638.1542851924896	2.499990940093994
101	368.45539712905884	fix_post	2		12	100.0	2.5	/experiments/knapen_aot/videos/S_yt-iuqdW5OLSzc_6.mp4	0.0	640.6542761325836	0.10031986236572266
102	368.55571699142456	fix_pre	0		120	101.0	2.5	/experiments/knapen_aot/videos/S_yt-T2CzKcU8pHo_17.mp4	0.0	640.7545959949493	0.9997580051422119
102	369.5554749965668	movie	1		299	101.0	2.5	/experiments/knapen_aot/videos/S_yt-T2CzKcU8pHo_17.mp4	0.0	641.7543540000916	2.499878168106079
102	372.05535316467285	fix_post	2		12	101.0	2.5	/experiments/knapen_aot/videos/S_yt-T2CzKcU8pHo_17.mp4	0.0	644.2542321681976	0.0999608039855957
103	372.15531396865845	fix_pre	0		120	102.0	2.5	/experiments/knapen_aot/videos/S_yt-z8fEOmzDlD4_21.mp4	0.0	644.3541929721832	1.0005261898040771
103	373.1558401584625	movie	1		297	102.0	2.5	/experiments/knapen_aot/videos/S_yt-z8fEOmzDlD4_21.mp4	0.0	645.3547191619873	2.4995570182800293
103	375.65539717674255	fix_post	2		12	102.0	2.5	/experiments/knapen_aot/videos/S_yt-z8fEOmzDlD4_21.mp4	0.0	647.8542761802673	0.09998297691345215
104	375.755380153656	fix_pre	0		120	103.0	2.5	/experiments/knapen_aot/videos/S_yt-T2Izta7lYZg_111.mp4	0.0	647.9542591571808	1.00006103515625
104	376.75544118881226	movie	1		298	103.0	2.5	/experiments/knapen_aot/videos/S_yt-T2Izta7lYZg_111.mp4	0.0	648.954320192337	2.4999477863311768
104	379.25538897514343	fix_post	2		12	103.0	2.5	/experiments/knapen_aot/videos/S_yt-T2Izta7lYZg_111.mp4	0.0	651.4542679786682	0.09994912147521973
105	379.35533809661865	fix_pre	0		120	104.0	2.5	/experiments/knapen_aot/videos/S_yt-Y-8d31A9JXg_12.mp4	0.0	651.5542171001434	1.0018730163574219
105	380.3572111129761	movie	1		296	104.0	2.5	/experiments/knapen_aot/videos/S_yt-Y-8d31A9JXg_12.mp4	0.0	652.5560901165009	2.498167037963867
105	382.85537815093994	fix_post	2		12	104.0	2.5	/experiments/knapen_aot/videos/S_yt-Y-8d31A9JXg_12.mp4	0.0	655.0542571544647	0.1000058650970459
107	382.955384016037	stim	0		1716					655.1542630195618	14.299741983413696
