trial_nr	onset	event_type	phase	response	nr_frames	movie_index	movie_duration	movie_file	blank	onset_abs	duration
0	0.2083439826965332	stim	0		544					182.39638805389404	4.5332350730896
0	4.733582019805908	response	0	space						186.92162609100342	
1	4.741579055786133	fix_pre	0		121	0.0	2.5	/experiments/knapen_AOT/aot_oldvideos/S_yt-loe3Rqs8TEM_46.mp4	0.0	186.92962312698364	1.0132670402526855
1	5.754846096038818	movie	1		280	0.0	2.5	/experiments/knapen_AOT/aot_oldvideos/S_yt-loe3Rqs8TEM_46.mp4	0.0	187.94289016723633	2.4951109886169434
1	8.249957084655762	fix_post	2		12	0.0	2.5	/experiments/knapen_AOT/aot_oldvideos/S_yt-loe3Rqs8TEM_46.mp4	0.0	190.43800115585327	0.1000070571899414
2	8.349964141845703	fix_pre	0		120	1.0	2.5	/experiments/knapen_AOT/aot_oldvideos/S_yt-Z_irN6cNiD4_148.mp4	0.0	190.5380082130432	0.9999768733978271
2	9.34994101524353	movie	1		293	1.0	2.5	/experiments/knapen_AOT/aot_oldvideos/S_yt-Z_irN6cNiD4_148.mp4	0.0	191.53798508644104	2.500044107437134
2	11.849985122680664	fix_post	2		12	1.0	2.5	/experiments/knapen_AOT/aot_oldvideos/S_yt-Z_irN6cNiD4_148.mp4	0.0	194.03802919387817	0.10007596015930176
3	11.950061082839966	fix_pre	0		120	2.0	2.5	/experiments/knapen_AOT/aot_oldvideos/S_yt-t9sowxGR_s4_1.mp4	0.0	194.13810515403748	0.9999260902404785
3	12.949987173080444	movie	1		296	2.0	2.5	/experiments/knapen_AOT/aot_oldvideos/S_yt-t9sowxGR_s4_1.mp4	0.0	195.13803124427795	2.50002384185791
3	15.450011014938354	fix_post	2		12	2.0	2.5	/experiments/knapen_AOT/aot_oldvideos/S_yt-t9sowxGR_s4_1.mp4	0.0	197.63805508613586	0.10000109672546387
4	15.550012111663818	fix_pre	0		120	3.0	2.5	/experiments/knapen_AOT/aot_oldvideos/S_yt-6_SgWsPne7M_11.mp4	0.0	197.73805618286133	1.000053882598877
4	16.550065994262695	movie	1		289	3.0	2.5	/experiments/knapen_AOT/aot_oldvideos/S_yt-6_SgWsPne7M_11.mp4	0.0	198.7381100654602	2.499986171722412
4	19.050052165985107	fix_post	2		12	3.0	2.5	/experiments/knapen_AOT/aot_oldvideos/S_yt-6_SgWsPne7M_11.mp4	0.0	201.23809623718262	0.10003399848937988
5	19.150086164474487	fix_pre	0		120	4.0	2.5	/experiments/knapen_AOT/aot_oldvideos/S_yt-n12iRXTksXA_65.mp4	0.0	201.338130235672	1.0000228881835938
5	20.15010905265808	movie	1		289	4.0	2.5	/experiments/knapen_AOT/aot_oldvideos/S_yt-n12iRXTksXA_65.mp4	0.0	202.3381531238556	2.4999771118164062
5	22.650086164474487	fix_post	2		12	4.0	2.5	/experiments/knapen_AOT/aot_oldvideos/S_yt-n12iRXTksXA_65.mp4	0.0	204.838130235672	0.1000208854675293
6	22.750107049942017	fix_pre	0		120	5.0	2.5	blank	1.0	204.93815112113953	1.0000410079956055
6	23.750148057937622	movie	1		300	5.0	2.5	blank	1.0	205.93819212913513	2.5000240802764893
6	26.25017213821411	fix_post	2		12	5.0	2.5	blank	1.0	208.43821620941162	0.09998798370361328
7	26.350160121917725	fix_pre	0		120	6.0	2.5	/experiments/knapen_AOT/aot_oldvideos/S_yt-S6N5FyjSFZE_4.mp4	0.0	208.53820419311523	1.0000369548797607
7	27.350197076797485	movie	1		286	6.0	2.5	/experiments/knapen_AOT/aot_oldvideos/S_yt-S6N5FyjSFZE_4.mp4	0.0	209.538241147995	2.499994993209839
7	29.850192070007324	fix_post	2		12	6.0	2.5	/experiments/knapen_AOT/aot_oldvideos/S_yt-S6N5FyjSFZE_4.mp4	0.0	212.03823614120483	0.10001111030578613
8	29.95020318031311	fix_pre	0		120	7.0	2.5	/experiments/knapen_AOT/aot_oldvideos/S_yt-sZBe-xmTySc_8.mp4	0.0	212.13824725151062	1.0000288486480713
8	30.95023202896118	movie	1		282	7.0	2.5	/experiments/knapen_AOT/aot_oldvideos/S_yt-sZBe-xmTySc_8.mp4	0.0	213.1382761001587	2.500012159347534
8	33.450244188308716	fix_post	2		12	7.0	2.5	/experiments/knapen_AOT/aot_oldvideos/S_yt-sZBe-xmTySc_8.mp4	0.0	215.63828825950623	0.10003089904785156
9	33.55027508735657	fix_pre	0		120	8.0	2.5	/experiments/knapen_AOT/aot_oldvideos/S_yt-qHUewJuLW4o_19.mp4	0.0	215.73831915855408	1.6168339252471924
9	35.16710901260376	movie	1		60	8.0	2.5	/experiments/knapen_AOT/aot_oldvideos/S_yt-qHUewJuLW4o_19.mp4	0.0	217.35515308380127	1.883193016052246
9	37.050302028656006	fix_post	2		12	8.0	2.5	/experiments/knapen_AOT/aot_oldvideos/S_yt-qHUewJuLW4o_19.mp4	0.0	219.23834609985352	0.10048604011535645
10	37.15078806877136	fix_pre	0		117	9.0	2.5	/experiments/knapen_AOT/aot_oldvideos/S_yt-YZO4_2yJLWE_1447.mp4	0.0	219.33883213996887	0.9995219707489014
10	38.150310039520264	movie	1		211	9.0	2.5	/experiments/knapen_AOT/aot_oldvideos/S_yt-YZO4_2yJLWE_1447.mp4	0.0	220.33835411071777	2.500067949295044
10	40.65037798881531	fix_post	2		12	9.0	2.5	/experiments/knapen_AOT/aot_oldvideos/S_yt-YZO4_2yJLWE_1447.mp4	0.0	222.83842206001282	0.09996914863586426
11	40.75034713745117	fix_pre	0		120	10.0	2.5	blank	1.0	222.93839120864868	1.0
11	41.75034713745117	movie	1		300	10.0	2.5	blank	1.0	223.93839120864868	2.5000548362731934
11	44.250401973724365	fix_post	2		12	10.0	2.5	blank	1.0	226.43844604492188	0.09998607635498047
12	44.350388050079346	fix_pre	0		120	11.0	2.5	/experiments/knapen_AOT/aot_oldvideos/S_yt-GpVFUM8K0yE_68.mp4	0.0	226.53843212127686	1.0000269412994385
12	45.350414991378784	movie	1		291	11.0	2.5	/experiments/knapen_AOT/aot_oldvideos/S_yt-GpVFUM8K0yE_68.mp4	0.0	227.5384590625763	2.5000159740448
12	47.850430965423584	fix_post	2		12	11.0	2.5	/experiments/knapen_AOT/aot_oldvideos/S_yt-GpVFUM8K0yE_68.mp4	0.0	230.0384750366211	0.09999918937683105
13	47.950430154800415	fix_pre	0		120	12.0	2.5	/experiments/knapen_AOT/aot_oldvideos/S_yt-Hs5HF3mTQ7A_9.mp4	0.0	230.13847422599792	1.000013828277588
13	48.950443983078	movie	1		281	12.0	2.5	/experiments/knapen_AOT/aot_oldvideos/S_yt-Hs5HF3mTQ7A_9.mp4	0.0	231.1384880542755	2.916729211807251
13	51.867173194885254	fix_post	2		0	12.0	2.5	/experiments/knapen_AOT/aot_oldvideos/S_yt-Hs5HF3mTQ7A_9.mp4	0.0	234.05521726608276	0.0022008419036865234
14	51.86937403678894	fix_pre	0		82	13.0	2.5	/experiments/knapen_AOT/aot_oldvideos/S_yt-ZmoUDsP2y40_8.mp4	0.0	234.05741810798645	0.6811449527740479
14	52.55051898956299	movie	1		293	13.0	2.5	/experiments/knapen_AOT/aot_oldvideos/S_yt-ZmoUDsP2y40_8.mp4	0.0	234.7385630607605	2.4999890327453613
14	55.05050802230835	fix_post	2		12	13.0	2.5	/experiments/knapen_AOT/aot_oldvideos/S_yt-ZmoUDsP2y40_8.mp4	0.0	237.23855209350586	0.10043001174926758
15	55.15093803405762	fix_pre	0		120	14.0	2.5	blank	1.0	237.33898210525513	0.9996261596679688
15	56.150564193725586	movie	1		300	14.0	2.5	blank	1.0	238.3386082649231	2.50003981590271
15	58.650604009628296	fix_post	2		12	14.0	2.5	blank	1.0	240.8386480808258	0.09997296333312988
16	58.750576972961426	fix_pre	0		120	15.0	2.5	blank	1.0	240.93862104415894	1.000016212463379
16	59.750593185424805	movie	1		300	15.0	2.5	blank	1.0	241.93863725662231	2.5000319480895996
16	62.250625133514404	fix_post	2		12	15.0	2.5	blank	1.0	244.4386692047119	0.10005497932434082
17	62.350680112838745	fix_pre	0		120	16.0	2.5	/experiments/knapen_AOT/aot_oldvideos/S_yt-H2y1th4WaWU_51.mp4	0.0	244.53872418403625	0.9999630451202393
17	63.350643157958984	movie	1		217	16.0	2.5	/experiments/knapen_AOT/aot_oldvideos/S_yt-H2y1th4WaWU_51.mp4	0.0	245.5386872291565	2.5000078678131104
17	65.8506510257721	fix_post	2		12	16.0	2.5	/experiments/knapen_AOT/aot_oldvideos/S_yt-H2y1th4WaWU_51.mp4	0.0	248.0386950969696	0.10000014305114746
18	65.95065116882324	fix_pre	0		120	17.0	2.5	/experiments/knapen_AOT/aot_oldvideos/S_production_ID_4820331.mp4	0.0	248.13869524002075	1.0000219345092773
18	66.95067310333252	movie	1		78	17.0	2.5	/experiments/knapen_AOT/aot_oldvideos/S_production_ID_4820331.mp4	0.0	249.13871717453003	3.1834969520568848
18	70.1341700553894	fix_post	2		0	17.0	2.5	/experiments/knapen_AOT/aot_oldvideos/S_production_ID_4820331.mp4	0.0	252.3222141265869	0.002499103546142578
19	70.13666915893555	fix_pre	0		50	18.0	2.5	blank	1.0	252.32471323013306	0.41405487060546875
19	70.55072402954102	movie	1		300	18.0	2.5	blank	1.0	252.73876810073853	2.5000391006469727
19	73.05076313018799	fix_post	2		12	18.0	2.5	blank	1.0	255.2388072013855	0.0999908447265625
20	73.15075397491455	fix_pre	0		120	19.0	2.5	/experiments/knapen_AOT/aot_oldvideos/S_yt-fAWPQRcrXl0_38.mp4	0.0	255.33879804611206	1.0003230571746826
20	74.15107703208923	movie	1		276	19.0	2.5	/experiments/knapen_AOT/aot_oldvideos/S_yt-fAWPQRcrXl0_38.mp4	0.0	256.33912110328674	2.4997479915618896
20	76.65082502365112	fix_post	2		12	19.0	2.5	/experiments/knapen_AOT/aot_oldvideos/S_yt-fAWPQRcrXl0_38.mp4	0.0	258.83886909484863	0.09998512268066406
21	76.75081014633179	fix_pre	0		120	20.0	2.5	blank	1.0	258.9388542175293	1.0000100135803223
21	77.75082015991211	movie	1		300	20.0	2.5	blank	1.0	259.9388642311096	2.50010085105896
21	80.25092101097107	fix_post	2		12	20.0	2.5	blank	1.0	262.4389650821686	0.09993195533752441
22	80.3508529663086	fix_pre	0		120	21.0	2.5	/experiments/knapen_AOT/aot_oldvideos/S_yt-A-RhzHTz38g_21.mp4	0.0	262.5388970375061	1.0000381469726562
22	81.35089111328125	movie	1		279	21.0	2.5	/experiments/knapen_AOT/aot_oldvideos/S_yt-A-RhzHTz38g_21.mp4	0.0	263.53893518447876	2.500009059906006
22	83.85090017318726	fix_post	2		12	21.0	2.5	/experiments/knapen_AOT/aot_oldvideos/S_yt-A-RhzHTz38g_21.mp4	0.0	266.03894424438477	0.09999799728393555
23	83.95089817047119	fix_pre	0		120	22.0	2.5	blank	1.0	266.1389422416687	1.0000197887420654
23	84.95091795921326	movie	1		300	22.0	2.5	blank	1.0	267.13896203041077	2.5000391006469727
23	87.45095705986023	fix_post	2		12	22.0	2.5	blank	1.0	269.63900113105774	0.09998297691345215
24	87.55094003677368	fix_pre	0		120	23.0	2.5	/experiments/knapen_AOT/aot_oldvideos/S_yt-oypn4VCTu6U_279.mp4	0.0	269.7389841079712	1.0000579357147217
24	88.5509979724884	movie	1		275	23.0	2.5	/experiments/knapen_AOT/aot_oldvideos/S_yt-oypn4VCTu6U_279.mp4	0.0	270.7390420436859	2.500005006790161
24	91.05100297927856	fix_post	2		12	23.0	2.5	/experiments/knapen_AOT/aot_oldvideos/S_yt-oypn4VCTu6U_279.mp4	0.0	273.2390470504761	0.10021615028381348
25	91.15121912956238	fix_pre	0		120	24.0	2.5	/experiments/knapen_AOT/aot_oldvideos/S_ILSVRC2015_train_00661004.mp4	0.0	273.3392632007599	1.0000739097595215
25	92.1512930393219	movie	1		280	24.0	2.5	/experiments/knapen_AOT/aot_oldvideos/S_ILSVRC2015_train_00661004.mp4	0.0	274.3393371105194	2.499735116958618
25	94.65102815628052	fix_post	2		12	24.0	2.5	/experiments/knapen_AOT/aot_oldvideos/S_ILSVRC2015_train_00661004.mp4	0.0	276.839072227478	0.10000991821289062
26	94.75103807449341	fix_pre	0		120	25.0	2.5	/experiments/knapen_AOT/aot_oldvideos/S_yt-xUPucH7kNAs_178.mp4	0.0	276.9390821456909	1.0000090599060059
26	95.75104713439941	movie	1		273	25.0	2.5	/experiments/knapen_AOT/aot_oldvideos/S_yt-xUPucH7kNAs_178.mp4	0.0	277.9390912055969	2.500013828277588
26	98.251060962677	fix_post	2		12	25.0	2.5	/experiments/knapen_AOT/aot_oldvideos/S_yt-xUPucH7kNAs_178.mp4	0.0	280.4391050338745	0.10004711151123047
27	98.35110807418823	fix_pre	0		120	26.0	2.5	blank	1.0	280.53915214538574	0.9999890327453613
27	99.3510971069336	movie	1		296	26.0	2.5	blank	1.0	281.5391411781311	2.491710901260376
27	101.84280800819397	fix_post	2		12	26.0	2.5	blank	1.0	284.0308520793915	0.10013699531555176
28	101.94294500350952	fix_pre	0		120	27.0	2.5	/experiments/knapen_AOT/aot_oldvideos/S_yt-e5ua5Pj86E4_140.mp4	0.0	284.13098907470703	1.0000360012054443
28	102.94298100471497	movie	1		244	27.0	2.5	/experiments/knapen_AOT/aot_oldvideos/S_yt-e5ua5Pj86E4_140.mp4	0.0	285.1310250759125	2.7916600704193115
28	105.73464107513428	fix_post	2		0	27.0	2.5	/experiments/knapen_AOT/aot_oldvideos/S_yt-e5ua5Pj86E4_140.mp4	0.0	287.9226851463318	0.002301931381225586
29	105.7369430065155	fix_pre	0		97	28.0	2.5	/experiments/knapen_AOT/aot_oldvideos/S_ILSVRC2015_train_00415002.mp4	0.0	287.924987077713	1.281109094619751
29	107.01805210113525	movie	1		225	28.0	2.5	/experiments/knapen_AOT/aot_oldvideos/S_ILSVRC2015_train_00415002.mp4	0.0	289.20609617233276	2.024852991104126
29	109.04290509223938	fix_post	2		12	28.0	2.5	/experiments/knapen_AOT/aot_oldvideos/S_ILSVRC2015_train_00415002.mp4	0.0	291.2309491634369	0.09998393058776855
30	109.14288902282715	fix_pre	0		120	29.0	2.5	/experiments/knapen_AOT/aot_oldvideos/S_yt-a_awONsLFfE_107.mp4	0.0	291.33093309402466	1.5084929466247559
30	110.6513819694519	movie	1		19	29.0	2.5	/experiments/knapen_AOT/aot_oldvideos/S_yt-a_awONsLFfE_107.mp4	0.0	292.8394260406494	2.41664719581604
30	113.06802916526794	fix_post	2		0	29.0	2.5	/experiments/knapen_AOT/aot_oldvideos/S_yt-a_awONsLFfE_107.mp4	0.0	295.25607323646545	0.0022699832916259766
31	113.07029914855957	fix_pre	0		81	30.0	2.5	/experiments/knapen_AOT/aot_oldvideos/S_yt-65cexqxy5lU_35.mp4	0.0	295.2583432197571	0.6726770401000977
31	113.74297618865967	movie	1		279	30.0	2.5	/experiments/knapen_AOT/aot_oldvideos/S_yt-65cexqxy5lU_35.mp4	0.0	295.9310202598572	2.500025987625122
31	116.24300217628479	fix_post	2		12	30.0	2.5	/experiments/knapen_AOT/aot_oldvideos/S_yt-65cexqxy5lU_35.mp4	0.0	298.4310462474823	0.0999908447265625
32	116.34299302101135	fix_pre	0		120	31.0	2.5	/experiments/knapen_AOT/aot_oldvideos/S_yt-JxqSboqaUPY_5.mp4	0.0	298.53103709220886	1.4752230644226074
32	117.81821608543396	movie	1		217	31.0	2.5	/experiments/knapen_AOT/aot_oldvideos/S_yt-JxqSboqaUPY_5.mp4	0.0	300.00626015663147	2.0248398780822754
32	119.84305596351624	fix_post	2		12	31.0	2.5	/experiments/knapen_AOT/aot_oldvideos/S_yt-JxqSboqaUPY_5.mp4	0.0	302.03110003471375	0.10002517700195312
33	119.94308114051819	fix_pre	0		120	32.0	2.5	/experiments/knapen_AOT/aot_oldvideos/S_yt-Y32yFYRmNVU_22.mp4	0.0	302.1311252117157	1.0000250339508057
33	120.943106174469	movie	1		212	32.0	2.5	/experiments/knapen_AOT/aot_oldvideos/S_yt-Y32yFYRmNVU_22.mp4	0.0	303.1311502456665	2.500159978866577
33	123.44326615333557	fix_post	2		12	32.0	2.5	/experiments/knapen_AOT/aot_oldvideos/S_yt-Y32yFYRmNVU_22.mp4	0.0	305.6313102245331	0.0998389720916748
34	123.54310512542725	fix_pre	0		120	33.0	2.5	/experiments/knapen_AOT/aot_oldvideos/S_yt-AJypa57HKqM_28.mp4	0.0	305.73114919662476	1.5001459121704102
34	125.04325103759766	movie	1		158	33.0	2.5	/experiments/knapen_AOT/aot_oldvideos/S_yt-AJypa57HKqM_28.mp4	0.0	307.23129510879517	1.9998669624328613
34	127.04311800003052	fix_post	2		12	33.0	2.5	/experiments/knapen_AOT/aot_oldvideos/S_yt-AJypa57HKqM_28.mp4	0.0	309.231162071228	0.10001206398010254
35	127.14313006401062	fix_pre	0		120	34.0	2.5	/experiments/knapen_AOT/aot_oldvideos/S_yt-YWfInCviN1s_126.mp4	0.0	309.33117413520813	1.0000231266021729
35	128.1431531906128	movie	1		64	34.0	2.5	/experiments/knapen_AOT/aot_oldvideos/S_yt-YWfInCviN1s_126.mp4	0.0	310.3311972618103	2.8500828742980957
35	130.9932360649109	fix_post	2		0	34.0	2.5	/experiments/knapen_AOT/aot_oldvideos/S_yt-YWfInCviN1s_126.mp4	0.0	313.1812801361084	0.002341032028198242
36	130.9955770969391	fix_pre	0		90	35.0	2.5	/experiments/knapen_AOT/aot_oldvideos/S_yt-Uih643A1YtA_110.mp4	0.0	313.1836211681366	1.5894050598144531
36	132.58498215675354	movie	1		31	35.0	2.5	/experiments/knapen_AOT/aot_oldvideos/S_yt-Uih643A1YtA_110.mp4	0.0	314.77302622795105	1.6582210063934326
36	134.24320316314697	fix_post	2		12	35.0	2.5	/experiments/knapen_AOT/aot_oldvideos/S_yt-Uih643A1YtA_110.mp4	0.0	316.4312472343445	0.10000801086425781
37	134.34321117401123	fix_pre	0		120	36.0	2.5	/experiments/knapen_AOT/aot_oldvideos/S_ILSVRC2015_train_00552000.mp4	0.0	316.53125524520874	1.0000410079956055
37	135.34325218200684	movie	1		72	36.0	2.5	/experiments/knapen_AOT/aot_oldvideos/S_ILSVRC2015_train_00552000.mp4	0.0	317.53129625320435	2.5000100135803223
37	137.84326219558716	fix_post	2		12	36.0	2.5	/experiments/knapen_AOT/aot_oldvideos/S_ILSVRC2015_train_00552000.mp4	0.0	320.03130626678467	0.09999680519104004
38	137.9432590007782	fix_pre	0		120	37.0	2.5	/experiments/knapen_AOT/aot_oldvideos/S_yt-9PTQ4U4oPUU_243.mp4	0.0	320.1313030719757	1.0000150203704834
38	138.94327402114868	movie	1		144	37.0	2.5	/experiments/knapen_AOT/aot_oldvideos/S_yt-9PTQ4U4oPUU_243.mp4	0.0	321.1313180923462	2.500028133392334
38	141.44330215454102	fix_post	2		12	37.0	2.5	/experiments/knapen_AOT/aot_oldvideos/S_yt-9PTQ4U4oPUU_243.mp4	0.0	323.6313462257385	0.1000068187713623
39	141.54330897331238	fix_pre	0		120	38.0	2.5	/experiments/knapen_AOT/aot_oldvideos/S_yt-VypeVQ7gJ_k_578.mp4	0.0	323.7313530445099	1.4834980964660645
39	143.02680706977844	movie	1		33	38.0	2.5	/experiments/knapen_AOT/aot_oldvideos/S_yt-VypeVQ7gJ_k_578.mp4	0.0	325.21485114097595	2.0165419578552246
39	145.04334902763367	fix_post	2		12	38.0	2.5	/experiments/knapen_AOT/aot_oldvideos/S_yt-VypeVQ7gJ_k_578.mp4	0.0	327.2313930988312	0.1000051498413086
40	145.14335417747498	fix_pre	0		120	39.0	2.5	/experiments/knapen_AOT/aot_oldvideos/S_yt-DpLc4e4bpu0_1467.mp4	0.0	327.3313982486725	1.5015599727630615
40	146.64491415023804	movie	1		8	39.0	2.5	/experiments/knapen_AOT/aot_oldvideos/S_yt-DpLc4e4bpu0_1467.mp4	0.0	328.83295822143555	2.5414509773254395
40	149.18636512756348	fix_post	2		0	39.0	2.5	/experiments/knapen_AOT/aot_oldvideos/S_yt-DpLc4e4bpu0_1467.mp4	0.0	331.374409198761	0.002552032470703125
41	149.18891716003418	fix_pre	0		67	40.0	2.5	/experiments/knapen_AOT/aot_oldvideos/S_yt-sBdvBO-TPNM_8.mp4	0.0	331.3769612312317	1.1434028148651123
41	150.3323199748993	movie	1		136	40.0	2.5	/experiments/knapen_AOT/aot_oldvideos/S_yt-sBdvBO-TPNM_8.mp4	0.0	332.5203640460968	1.911116123199463
41	152.24343609809875	fix_post	2		12	40.0	2.5	/experiments/knapen_AOT/aot_oldvideos/S_yt-sBdvBO-TPNM_8.mp4	0.0	334.43148016929626	0.10002589225769043
42	152.34346199035645	fix_pre	0		120	41.0	2.5	blank	1.0	334.53150606155396	1.0000112056732178
42	153.34347319602966	movie	1		300	41.0	2.5	blank	1.0	335.5315172672272	2.5000269412994385
42	155.8435001373291	fix_post	2		12	41.0	2.5	blank	1.0	338.0315442085266	0.10000085830688477
43	155.943500995636	fix_pre	0		120	42.0	2.5	/experiments/knapen_AOT/aot_oldvideos/S_yt-4slVHFGPwEs_744.mp4	0.0	338.1315450668335	1.000002145767212
43	156.9435031414032	movie	1		265	42.0	2.5	/experiments/knapen_AOT/aot_oldvideos/S_yt-4slVHFGPwEs_744.mp4	0.0	339.1315472126007	2.500035047531128
43	159.44353818893433	fix_post	2		12	42.0	2.5	/experiments/knapen_AOT/aot_oldvideos/S_yt-4slVHFGPwEs_744.mp4	0.0	341.63158226013184	0.10000491142272949
44	159.54354310035706	fix_pre	0		120	43.0	2.5	/experiments/knapen_AOT/aot_oldvideos/S_yt-mOQJwaPQbMg_5.mp4	0.0	341.73158717155457	1.000046968460083
44	160.54359006881714	movie	1		193	43.0	2.5	/experiments/knapen_AOT/aot_oldvideos/S_yt-mOQJwaPQbMg_5.mp4	0.0	342.73163414001465	2.5000030994415283
44	163.04359316825867	fix_post	2		12	43.0	2.5	/experiments/knapen_AOT/aot_oldvideos/S_yt-mOQJwaPQbMg_5.mp4	0.0	345.2316372394562	0.0999908447265625
45	163.14358401298523	fix_pre	0		120	44.0	2.5	/experiments/knapen_AOT/aot_oldvideos/S_yt-q8mfIumbHuo_84.mp4	0.0	345.33162808418274	1.0000450611114502
45	164.14362907409668	movie	1		271	44.0	2.5	/experiments/knapen_AOT/aot_oldvideos/S_yt-q8mfIumbHuo_84.mp4	0.0	346.3316731452942	2.4999918937683105
45	166.643620967865	fix_post	2		12	44.0	2.5	/experiments/knapen_AOT/aot_oldvideos/S_yt-q8mfIumbHuo_84.mp4	0.0	348.8316650390625	0.10003900527954102
46	166.74365997314453	fix_pre	0		120	45.0	2.5	/experiments/knapen_AOT/aot_oldvideos/S_yt-jovPh9BdlYI_215.mp4	0.0	348.93170404434204	1.5194151401519775
46	168.2630751132965	movie	1		89	45.0	2.5	/experiments/knapen_AOT/aot_oldvideos/S_yt-jovPh9BdlYI_215.mp4	0.0	350.451119184494	1.98061203956604
46	170.24368715286255	fix_post	2		12	45.0	2.5	/experiments/knapen_AOT/aot_oldvideos/S_yt-jovPh9BdlYI_215.mp4	0.0	352.43173122406006	0.10000085830688477
47	170.34368801116943	fix_pre	0		120	46.0	2.5	/experiments/knapen_AOT/aot_oldvideos/S_yt-jsG6vM9Lkoc_318.mp4	0.0	352.53173208236694	1.475020170211792
47	171.81870818138123	movie	1		74	46.0	2.5	/experiments/knapen_AOT/aot_oldvideos/S_yt-jsG6vM9Lkoc_318.mp4	0.0	354.00675225257874	2.333345890045166
47	174.1520540714264	fix_post	2		0	46.0	2.5	/experiments/knapen_AOT/aot_oldvideos/S_yt-jsG6vM9Lkoc_318.mp4	0.0	356.3400981426239	0.002290964126586914
48	174.15434503555298	fix_pre	0		95	47.0	2.5	/experiments/knapen_AOT/aot_oldvideos/S_ILSVRC2015_train_00536000.mp4	0.0	356.3423891067505	1.2645070552825928
48	175.41885209083557	movie	1		9	47.0	2.5	/experiments/knapen_AOT/aot_oldvideos/S_ILSVRC2015_train_00536000.mp4	0.0	357.6068961620331	2.3510899543762207
48	177.7699420452118	fix_post	2		0	47.0	2.5	/experiments/knapen_AOT/aot_oldvideos/S_ILSVRC2015_train_00536000.mp4	0.0	359.9579861164093	0.002295970916748047
49	177.77223801612854	fix_pre	0		93	48.0	2.5	/experiments/knapen_AOT/aot_oldvideos/S_yt-DfgpLIP0jnk_105.mp4	0.0	359.96028208732605	1.247894048690796
49	179.02013206481934	movie	1		88	48.0	2.5	/experiments/knapen_AOT/aot_oldvideos/S_yt-DfgpLIP0jnk_105.mp4	0.0	361.20817613601685	2.773710012435913
49	181.79384207725525	fix_post	2		0	48.0	2.5	/experiments/knapen_AOT/aot_oldvideos/S_yt-DfgpLIP0jnk_105.mp4	0.0	363.98188614845276	0.002235889434814453
50	181.79607796669006	fix_pre	0		42	49.0	2.5	/experiments/knapen_AOT/aot_oldvideos/S_yt-ePxv64kEqa0_177.mp4	0.0	363.9841220378876	0.8644840717315674
50	182.66056203842163	movie	1		95	49.0	2.5	/experiments/knapen_AOT/aot_oldvideos/S_yt-ePxv64kEqa0_177.mp4	0.0	364.84860610961914	2.1416471004486084
50	184.80220913887024	fix_post	2		0	49.0	2.5	/experiments/knapen_AOT/aot_oldvideos/S_yt-ePxv64kEqa0_177.mp4	0.0	366.99025321006775	0.0022978782653808594
51	184.80450701713562	fix_pre	0		113	50.0	2.5	/experiments/knapen_AOT/aot_oldvideos/S_yt-Pd3_4Z2tbFU_47.mp4	0.0	366.99255108833313	1.4894731044769287
51	186.29398012161255	movie	1		139	50.0	2.5	/experiments/knapen_AOT/aot_oldvideos/S_yt-Pd3_4Z2tbFU_47.mp4	0.0	368.48202419281006	1.9499268531799316
51	188.24390697479248	fix_post	2		12	50.0	2.5	/experiments/knapen_AOT/aot_oldvideos/S_yt-Pd3_4Z2tbFU_47.mp4	0.0	370.43195104599	0.10001301765441895
52	188.3439199924469	fix_pre	0		120	51.0	2.5	/experiments/knapen_AOT/aot_oldvideos/S_yt-A1XT1fT1c8w_24.mp4	0.0	370.5319640636444	1.0000109672546387
52	189.34393095970154	movie	1		118	51.0	2.5	/experiments/knapen_AOT/aot_oldvideos/S_yt-A1XT1fT1c8w_24.mp4	0.0	371.53197503089905	2.800082206726074
52	192.1440131664276	fix_post	2		0	51.0	2.5	/experiments/knapen_AOT/aot_oldvideos/S_yt-A1XT1fT1c8w_24.mp4	0.0	374.3320572376251	0.0023047924041748047
53	192.1463179588318	fix_pre	0		96	52.0	2.5	blank	1.0	374.3343620300293	0.7976601123809814
53	192.94397807121277	movie	1		300	52.0	2.5	blank	1.0	375.1320221424103	2.5000500679016113
53	195.44402813911438	fix_post	2		12	52.0	2.5	blank	1.0	377.6320722103119	0.09999489784240723
54	195.5440230369568	fix_pre	0		120	53.0	2.5	/experiments/knapen_AOT/aot_oldvideos/S_yt-cILZ_cB3_so_73.mp4	0.0	377.7320671081543	1.0000030994415283
54	196.54402613639832	movie	1		272	53.0	2.5	/experiments/knapen_AOT/aot_oldvideos/S_yt-cILZ_cB3_so_73.mp4	0.0	378.7320702075958	2.500030040740967
54	199.04405617713928	fix_post	2		12	53.0	2.5	/experiments/knapen_AOT/aot_oldvideos/S_yt-cILZ_cB3_so_73.mp4	0.0	381.2321002483368	0.09999990463256836
55	199.14405608177185	fix_pre	0		120	54.0	2.5	/experiments/knapen_AOT/aot_oldvideos/S_yt-gbDSSDcRlg4_31.mp4	0.0	381.33210015296936	1.0000159740447998
55	200.14407205581665	movie	1		151	54.0	2.5	/experiments/knapen_AOT/aot_oldvideos/S_yt-gbDSSDcRlg4_31.mp4	0.0	382.33211612701416	2.5000789165496826
55	202.64415097236633	fix_post	2		12	54.0	2.5	/experiments/knapen_AOT/aot_oldvideos/S_yt-gbDSSDcRlg4_31.mp4	0.0	384.83219504356384	0.09995412826538086
56	202.7441051006317	fix_pre	0		120	55.0	2.5	/experiments/knapen_AOT/aot_oldvideos/S_yt-MXCxHM_Ms8A_15.mp4	0.0	384.9321491718292	1.0000438690185547
56	203.74414896965027	movie	1		275	55.0	2.5	/experiments/knapen_AOT/aot_oldvideos/S_yt-MXCxHM_Ms8A_15.mp4	0.0	385.9321930408478	2.5000240802764893
56	206.24417304992676	fix_post	2		12	55.0	2.5	/experiments/knapen_AOT/aot_oldvideos/S_yt-MXCxHM_Ms8A_15.mp4	0.0	388.43221712112427	0.10000014305114746
57	206.3441731929779	fix_pre	0		120	56.0	2.5	/experiments/knapen_AOT/aot_oldvideos/S_yt-pB-AcJ71tzA_20.mp4	0.0	388.5322172641754	1.0000038146972656
57	207.34417700767517	movie	1		282	56.0	2.5	/experiments/knapen_AOT/aot_oldvideos/S_yt-pB-AcJ71tzA_20.mp4	0.0	389.5322210788727	2.5000100135803223
57	209.8441870212555	fix_post	2		12	56.0	2.5	/experiments/knapen_AOT/aot_oldvideos/S_yt-pB-AcJ71tzA_20.mp4	0.0	392.032231092453	0.10000014305114746
58	209.94418716430664	fix_pre	0		120	57.0	2.5	/experiments/knapen_AOT/aot_oldvideos/S_yt-DO1vncSoiJk_58.mp4	0.0	392.13223123550415	1.0000128746032715
58	210.9442000389099	movie	1		151	57.0	2.5	/experiments/knapen_AOT/aot_oldvideos/S_yt-DO1vncSoiJk_58.mp4	0.0	393.1322441101074	2.500035047531128
58	213.44423508644104	fix_post	2		12	57.0	2.5	/experiments/knapen_AOT/aot_oldvideos/S_yt-DO1vncSoiJk_58.mp4	0.0	395.63227915763855	0.10000395774841309
59	213.54423904418945	fix_pre	0		120	58.0	2.5	/experiments/knapen_AOT/aot_oldvideos/S_yt-ChAhBD9LrsU_223.mp4	0.0	395.73228311538696	1.0000169277191162
59	214.54425597190857	movie	1		99	58.0	2.5	/experiments/knapen_AOT/aot_oldvideos/S_yt-ChAhBD9LrsU_223.mp4	0.0	396.7323000431061	2.9834342002868652
59	217.52769017219543	fix_post	2		0	58.0	2.5	/experiments/knapen_AOT/aot_oldvideos/S_yt-ChAhBD9LrsU_223.mp4	0.0	399.71573424339294	0.002663850784301758
60	217.53035402297974	fix_pre	0		74	59.0	2.5	/experiments/knapen_AOT/aot_oldvideos/S_yt-P2RwcXMKIbQ_1.mp4	0.0	399.71839809417725	1.1389970779418945
60	218.66935110092163	movie	1		76	59.0	2.5	/experiments/knapen_AOT/aot_oldvideos/S_yt-P2RwcXMKIbQ_1.mp4	0.0	400.85739517211914	1.9749648571014404
60	220.64431595802307	fix_post	2		12	59.0	2.5	/experiments/knapen_AOT/aot_oldvideos/S_yt-P2RwcXMKIbQ_1.mp4	0.0	402.8323600292206	0.10000920295715332
61	220.74432516098022	fix_pre	0		120	60.0	2.5	/experiments/knapen_AOT/aot_oldvideos/S_2E67nCgRCGk_75.mp4	0.0	402.93236923217773	1.0000309944152832
61	221.7443561553955	movie	1		285	60.0	2.5	/experiments/knapen_AOT/aot_oldvideos/S_2E67nCgRCGk_75.mp4	0.0	403.932400226593	2.5000128746032715
61	224.24436902999878	fix_post	2		9	60.0	2.5	/experiments/knapen_AOT/aot_oldvideos/S_2E67nCgRCGk_75.mp4	0.0	406.4324131011963	0.10001611709594727
62	224.34438514709473	fix_pre	0		120	61.0	2.5	/experiments/knapen_AOT/aot_oldvideos/S_yt-2U5u3lLJx5M_7.mp4	0.0	406.53242921829224	1.4834918975830078
62	225.82787704467773	movie	1		23	61.0	2.5	/experiments/knapen_AOT/aot_oldvideos/S_yt-2U5u3lLJx5M_7.mp4	0.0	408.01592111587524	2.0165441036224365
62	227.84442114830017	fix_post	2		12	61.0	2.5	/experiments/knapen_AOT/aot_oldvideos/S_yt-2U5u3lLJx5M_7.mp4	0.0	410.0324652194977	0.09999895095825195
63	227.94442009925842	fix_pre	0		120	62.0	2.5	/experiments/knapen_AOT/aot_oldvideos/S_yt-RL1chIcbTPQ_11.mp4	0.0	410.13246417045593	1.0000050067901611
63	228.94442510604858	movie	1		282	62.0	2.5	/experiments/knapen_AOT/aot_oldvideos/S_yt-RL1chIcbTPQ_11.mp4	0.0	411.1324691772461	2.5000228881835938
63	231.44444799423218	fix_post	2		12	62.0	2.5	/experiments/knapen_AOT/aot_oldvideos/S_yt-RL1chIcbTPQ_11.mp4	0.0	413.6324920654297	0.1000981330871582
64	231.54454612731934	fix_pre	0		120	63.0	2.5	/experiments/knapen_AOT/aot_oldvideos/S_yt-u0N1IsXxLM4_103.mp4	0.0	413.73259019851685	0.9999568462371826
64	232.54450297355652	movie	1		281	63.0	2.5	/experiments/knapen_AOT/aot_oldvideos/S_yt-u0N1IsXxLM4_103.mp4	0.0	414.732547044754	2.5
64	235.04450297355652	fix_post	2		12	63.0	2.5	/experiments/knapen_AOT/aot_oldvideos/S_yt-u0N1IsXxLM4_103.mp4	0.0	417.232547044754	0.10001015663146973
65	235.144513130188	fix_pre	0		120	64.0	2.5	/experiments/knapen_AOT/aot_oldvideos/S_yt-VyVvEvP6MRM_124.mp4	0.0	417.3325572013855	1.000025987625122
65	236.1445391178131	movie	1		227	64.0	2.5	/experiments/knapen_AOT/aot_oldvideos/S_yt-VyVvEvP6MRM_124.mp4	0.0	418.3325831890106	2.500005006790161
65	238.64454412460327	fix_post	2		12	64.0	2.5	/experiments/knapen_AOT/aot_oldvideos/S_yt-VyVvEvP6MRM_124.mp4	0.0	420.8325881958008	0.09999394416809082
66	238.74453806877136	fix_pre	0		120	65.0	2.5	/experiments/knapen_AOT/aot_oldvideos/S_yt-GBqXIFjZf8w_28.mp4	0.0	420.9325821399689	1.477297067642212
66	240.22183513641357	movie	1		172	65.0	2.5	/experiments/knapen_AOT/aot_oldvideos/S_yt-GBqXIFjZf8w_28.mp4	0.0	422.4098792076111	2.048574924468994
66	242.27041006088257	fix_post	2		9	65.0	2.5	/experiments/knapen_AOT/aot_oldvideos/S_yt-GBqXIFjZf8w_28.mp4	0.0	424.4584541320801	0.07420492172241211
67	242.34461498260498	fix_pre	0		120	66.0	2.5	blank	1.0	424.5326590538025	1.0000431537628174
67	243.3446581363678	movie	1		300	66.0	2.5	blank	1.0	425.5327022075653	2.500006914138794
67	245.8446650505066	fix_post	2		12	66.0	2.5	blank	1.0	428.0327091217041	0.10005712509155273
68	245.94472217559814	fix_pre	0		120	67.0	2.5	/experiments/knapen_AOT/aot_oldvideos/S_yt-hjqjWlzPRjY_76.mp4	0.0	428.13276624679565	0.9999468326568604
68	246.944669008255	movie	1		285	67.0	2.5	/experiments/knapen_AOT/aot_oldvideos/S_yt-hjqjWlzPRjY_76.mp4	0.0	429.1327130794525	2.5000641345977783
68	249.44473314285278	fix_post	2		12	67.0	2.5	/experiments/knapen_AOT/aot_oldvideos/S_yt-hjqjWlzPRjY_76.mp4	0.0	431.6327772140503	0.09997892379760742
69	249.5447120666504	fix_pre	0		120	68.0	2.5	/experiments/knapen_AOT/aot_oldvideos/S_yt-bWXohhodbjg_86.mp4	0.0	431.7327561378479	1.0000231266021729
69	250.54473519325256	movie	1		221	68.0	2.5	/experiments/knapen_AOT/aot_oldvideos/S_yt-bWXohhodbjg_86.mp4	0.0	432.7327792644501	2.500020980834961
69	253.04475617408752	fix_post	2		12	68.0	2.5	/experiments/knapen_AOT/aot_oldvideos/S_yt-bWXohhodbjg_86.mp4	0.0	435.23280024528503	0.0999917984008789
70	253.1447479724884	fix_pre	0		120	69.0	2.5	/experiments/knapen_AOT/aot_oldvideos/S_CHWw361oMSQ_195.mp4	0.0	435.3327920436859	1.0000340938568115
70	254.14478206634521	movie	1		101	69.0	2.5	/experiments/knapen_AOT/aot_oldvideos/S_CHWw361oMSQ_195.mp4	0.0	436.3328261375427	2.986870050430298
70	257.1316521167755	fix_post	2		0	69.0	2.5	/experiments/knapen_AOT/aot_oldvideos/S_CHWw361oMSQ_195.mp4	0.0	439.319696187973	0.002173900604248047
71	257.13382601737976	fix_pre	0		73	70.0	2.5	/experiments/knapen_AOT/aot_oldvideos/S_yt-cWBQB8CxsVY_69.mp4	0.0	439.32187008857727	0.6109890937805176
71	257.7448151111603	movie	1		220	70.0	2.5	/experiments/knapen_AOT/aot_oldvideos/S_yt-cWBQB8CxsVY_69.mp4	0.0	439.9328591823578	2.500011920928955
71	260.24482703208923	fix_post	2		12	70.0	2.5	/experiments/knapen_AOT/aot_oldvideos/S_yt-cWBQB8CxsVY_69.mp4	0.0	442.43287110328674	0.10001897811889648
72	260.34484601020813	fix_pre	0		120	71.0	2.5	/experiments/knapen_AOT/aot_oldvideos/S_yt-g_RCws799LQ_52.mp4	0.0	442.53289008140564	1.0000221729278564
72	261.344868183136	movie	1		292	71.0	2.5	/experiments/knapen_AOT/aot_oldvideos/S_yt-g_RCws799LQ_52.mp4	0.0	443.5329122543335	2.500032901763916
72	263.8449010848999	fix_post	2		12	71.0	2.5	/experiments/knapen_AOT/aot_oldvideos/S_yt-g_RCws799LQ_52.mp4	0.0	446.0329451560974	0.09998297691345215
73	263.94488406181335	fix_pre	0		120	72.0	2.5	/experiments/knapen_AOT/aot_oldvideos/S_ILSVRC2015_train_00611000.mp4	0.0	446.13292813301086	1.0000369548797607
73	264.9449210166931	movie	1		287	72.0	2.5	/experiments/knapen_AOT/aot_oldvideos/S_ILSVRC2015_train_00611000.mp4	0.0	447.1329650878906	2.5000171661376953
73	267.4449381828308	fix_post	2		12	72.0	2.5	/experiments/knapen_AOT/aot_oldvideos/S_ILSVRC2015_train_00611000.mp4	0.0	449.6329822540283	0.10001182556152344
74	267.54495000839233	fix_pre	0		120	73.0	2.5	/experiments/knapen_AOT/aot_oldvideos/S_yt-p-kbRhTdyiQ_31.mp4	0.0	449.73299407958984	1.0000131130218506
74	268.5449631214142	movie	1		286	73.0	2.5	/experiments/knapen_AOT/aot_oldvideos/S_yt-p-kbRhTdyiQ_31.mp4	0.0	450.7330071926117	2.500001907348633
74	271.0449650287628	fix_post	2		12	73.0	2.5	/experiments/knapen_AOT/aot_oldvideos/S_yt-p-kbRhTdyiQ_31.mp4	0.0	453.2330090999603	0.10001301765441895
75	271.14497804641724	fix_pre	0		120	74.0	2.5	/experiments/knapen_AOT/aot_oldvideos/S_yt-1VTxnf2hZ0w_675.mp4	0.0	453.33302211761475	1.0000269412994385
75	272.1450049877167	movie	1		287	74.0	2.5	/experiments/knapen_AOT/aot_oldvideos/S_yt-1VTxnf2hZ0w_675.mp4	0.0	454.3330490589142	2.500070095062256
75	274.64507508277893	fix_post	2		12	74.0	2.5	/experiments/knapen_AOT/aot_oldvideos/S_yt-1VTxnf2hZ0w_675.mp4	0.0	456.83311915397644	0.09995388984680176
76	274.74502897262573	fix_pre	0		120	75.0	2.5	/experiments/knapen_AOT/aot_oldvideos/S_ILSVRC2015_train_00707000.mp4	0.0	456.93307304382324	1.000002145767212
76	275.74503111839294	movie	1		291	75.0	2.5	/experiments/knapen_AOT/aot_oldvideos/S_ILSVRC2015_train_00707000.mp4	0.0	457.93307518959045	2.5000810623168945
76	278.24511218070984	fix_post	2		12	75.0	2.5	/experiments/knapen_AOT/aot_oldvideos/S_ILSVRC2015_train_00707000.mp4	0.0	460.43315625190735	0.09996390342712402
77	278.34507608413696	fix_pre	0		117	76.0	2.5	/experiments/knapen_AOT/aot_oldvideos/S_yt-D9iwtEHx8M0_20.mp4	0.0	460.5331201553345	0.9999918937683105
77	279.3450679779053	movie	1		286	76.0	2.5	/experiments/knapen_AOT/aot_oldvideos/S_yt-D9iwtEHx8M0_20.mp4	0.0	461.5331120491028	2.5000431537628174
77	281.8451111316681	fix_post	2		12	76.0	2.5	/experiments/knapen_AOT/aot_oldvideos/S_yt-D9iwtEHx8M0_20.mp4	0.0	464.0331552028656	0.10001683235168457
78	281.9451279640198	fix_pre	0		120	77.0	2.5	/experiments/knapen_AOT/aot_oldvideos/S_yt-2wb0b0pdSxU_59.mp4	0.0	464.1331720352173	1.0000271797180176
78	282.9451551437378	movie	1		254	77.0	2.5	/experiments/knapen_AOT/aot_oldvideos/S_yt-2wb0b0pdSxU_59.mp4	0.0	465.1331992149353	2.73337984085083
78	285.6785349845886	fix_post	2		0	77.0	2.5	/experiments/knapen_AOT/aot_oldvideos/S_yt-2wb0b0pdSxU_59.mp4	0.0	467.86657905578613	0.0024061203002929688
79	285.6809411048889	fix_pre	0		104	78.0	2.5	/experiments/knapen_AOT/aot_oldvideos/S_yt-NqZHX-eOVUA_35.mp4	0.0	467.8689851760864	0.8642489910125732
79	286.5451900959015	movie	1		288	78.0	2.5	/experiments/knapen_AOT/aot_oldvideos/S_yt-NqZHX-eOVUA_35.mp4	0.0	468.733234167099	2.500020980834961
79	289.04521107673645	fix_post	2		12	78.0	2.5	/experiments/knapen_AOT/aot_oldvideos/S_yt-NqZHX-eOVUA_35.mp4	0.0	471.23325514793396	0.09999608993530273
80	289.14520716667175	fix_pre	0		120	79.0	2.5	blank	1.0	471.33325123786926	1.0000150203704834
80	290.14522218704224	movie	1		300	79.0	2.5	blank	1.0	472.33326625823975	2.500030994415283
80	292.6452531814575	fix_post	2		12	79.0	2.5	blank	1.0	474.83329725265503	0.10000991821289062
81	292.7452630996704	fix_pre	0		120	80.0	2.5	/experiments/knapen_AOT/aot_oldvideos/S_flickr-thelastdon-8662706978_3.mp4	0.0	474.9333071708679	1.0000100135803223
81	293.74527311325073	movie	1		284	80.0	2.5	/experiments/knapen_AOT/aot_oldvideos/S_flickr-thelastdon-8662706978_3.mp4	0.0	475.93331718444824	2.500040054321289
81	296.245313167572	fix_post	2		12	80.0	2.5	/experiments/knapen_AOT/aot_oldvideos/S_flickr-thelastdon-8662706978_3.mp4	0.0	478.43335723876953	0.09999299049377441
82	296.3453061580658	fix_pre	0		120	81.0	2.5	/experiments/knapen_AOT/aot_oldvideos/S_yt-e9ttJw0BUuU_40.mp4	0.0	478.5333502292633	1.0000288486480713
82	297.34533500671387	movie	1		160	81.0	2.5	/experiments/knapen_AOT/aot_oldvideos/S_yt-e9ttJw0BUuU_40.mp4	0.0	479.5333790779114	2.500049114227295
82	299.84538412094116	fix_post	2		12	81.0	2.5	/experiments/knapen_AOT/aot_oldvideos/S_yt-e9ttJw0BUuU_40.mp4	0.0	482.0334281921387	0.09996891021728516
83	299.94535303115845	fix_pre	0		120	82.0	2.5	/experiments/knapen_AOT/aot_oldvideos/S_yt-Z1ozMh4szTk_13.mp4	0.0	482.13339710235596	1.0000040531158447
83	300.9453570842743	movie	1		283	82.0	2.5	/experiments/knapen_AOT/aot_oldvideos/S_yt-Z1ozMh4szTk_13.mp4	0.0	483.1334011554718	2.500032901763916
83	303.4453899860382	fix_post	2		12	82.0	2.5	/experiments/knapen_AOT/aot_oldvideos/S_yt-Z1ozMh4szTk_13.mp4	0.0	485.6334340572357	0.10004019737243652
84	303.54543018341064	fix_pre	0		120	83.0	2.5	/experiments/knapen_AOT/aot_oldvideos/S_yt-ihCTIoE7qsk_730.mp4	0.0	485.73347425460815	0.999985933303833
84	304.5454161167145	movie	1		282	83.0	2.5	/experiments/knapen_AOT/aot_oldvideos/S_yt-ihCTIoE7qsk_730.mp4	0.0	486.733460187912	2.5000338554382324
84	307.0454499721527	fix_post	2		12	83.0	2.5	/experiments/knapen_AOT/aot_oldvideos/S_yt-ihCTIoE7qsk_730.mp4	0.0	489.2334940433502	0.09998202323913574
85	307.14543199539185	fix_pre	0		120	84.0	2.5	blank	1.0	489.33347606658936	1.000075101852417
85	308.14550709724426	movie	1		300	84.0	2.5	blank	1.0	490.3335511684418	2.4999899864196777
85	310.64549708366394	fix_post	2		12	84.0	2.5	blank	1.0	492.83354115486145	0.09999704360961914
86	310.74549412727356	fix_pre	0		120	85.0	2.5	/experiments/knapen_AOT/aot_oldvideos/S_yt-PQYnj2BR17I_16.mp4	0.0	492.93353819847107	1.0000219345092773
86	311.74551606178284	movie	1		95	85.0	2.5	/experiments/knapen_AOT/aot_oldvideos/S_yt-PQYnj2BR17I_16.mp4	0.0	493.93356013298035	2.9421210289001465
86	314.687637090683	fix_post	2		0	85.0	2.5	/experiments/knapen_AOT/aot_oldvideos/S_yt-PQYnj2BR17I_16.mp4	0.0	496.8756811618805	0.0029959678649902344
87	314.690633058548	fix_pre	0		79	86.0	2.5	/experiments/knapen_AOT/aot_oldvideos/S_yt-be6x_357tjE_41.mp4	0.0	496.8786771297455	1.1300880908966064
87	315.8207211494446	movie	1		146	86.0	2.5	/experiments/knapen_AOT/aot_oldvideos/S_yt-be6x_357tjE_41.mp4	0.0	498.0087652206421	2.0249359607696533
87	317.84565711021423	fix_post	2		12	86.0	2.5	/experiments/knapen_AOT/aot_oldvideos/S_yt-be6x_357tjE_41.mp4	0.0	500.03370118141174	0.09993290901184082
88	317.9455900192261	fix_pre	0		120	87.0	2.5	/experiments/knapen_AOT/aot_oldvideos/S_ILSVRC2015_train_00416000.mp4	0.0	500.1336340904236	1.000054121017456
88	318.94564414024353	movie	1		220	87.0	2.5	/experiments/knapen_AOT/aot_oldvideos/S_ILSVRC2015_train_00416000.mp4	0.0	501.13368821144104	2.5000879764556885
88	321.4457321166992	fix_post	2		12	87.0	2.5	/experiments/knapen_AOT/aot_oldvideos/S_ILSVRC2015_train_00416000.mp4	0.0	503.63377618789673	0.09990596771240234
89	321.5456380844116	fix_pre	0		120	88.0	2.5	/experiments/knapen_AOT/aot_oldvideos/S_yt-gbDSSDcRlg4_19.mp4	0.0	503.73368215560913	1.0000579357147217
89	322.54569602012634	movie	1		282	88.0	2.5	/experiments/knapen_AOT/aot_oldvideos/S_yt-gbDSSDcRlg4_19.mp4	0.0	504.73374009132385	2.499981164932251
89	325.0456771850586	fix_post	2		12	88.0	2.5	/experiments/knapen_AOT/aot_oldvideos/S_yt-gbDSSDcRlg4_19.mp4	0.0	507.2337212562561	0.10000991821289062
90	325.1456871032715	fix_pre	0		120	89.0	2.5	/experiments/knapen_AOT/aot_oldvideos/S_yt-PDNWrJ2bZ6I_79.mp4	0.0	507.333731174469	1.0000059604644775
90	326.14569306373596	movie	1		284	89.0	2.5	/experiments/knapen_AOT/aot_oldvideos/S_yt-PDNWrJ2bZ6I_79.mp4	0.0	508.3337371349335	2.5000391006469727
90	328.64573216438293	fix_post	2		12	89.0	2.5	/experiments/knapen_AOT/aot_oldvideos/S_yt-PDNWrJ2bZ6I_79.mp4	0.0	510.83377623558044	0.09996891021728516
91	328.7457010746002	fix_pre	0		120	90.0	2.5	/experiments/knapen_AOT/aot_oldvideos/S_yt-iCGU1R75BZo_52.mp4	0.0	510.93374514579773	1.0000360012054443
91	329.74573707580566	movie	1		279	90.0	2.5	/experiments/knapen_AOT/aot_oldvideos/S_yt-iCGU1R75BZo_52.mp4	0.0	511.9337811470032	2.5000219345092773
91	332.24575901031494	fix_post	2		12	90.0	2.5	/experiments/knapen_AOT/aot_oldvideos/S_yt-iCGU1R75BZo_52.mp4	0.0	514.4338030815125	0.10001707077026367
92	332.3457760810852	fix_pre	0		120	91.0	2.5	blank	1.0	514.5338201522827	1.000032901763916
92	333.3458089828491	movie	1		300	91.0	2.5	blank	1.0	515.5338530540466	2.5000030994415283
92	335.84581208229065	fix_post	2		12	91.0	2.5	blank	1.0	518.0338561534882	0.09998893737792969
93	335.9458010196686	fix_pre	0		120	92.0	2.5	/experiments/knapen_AOT/aot_oldvideos/S_ILSVRC2015_train_00768002.mp4	0.0	518.1338450908661	1.0000500679016113
93	336.9458510875702	movie	1		288	92.0	2.5	/experiments/knapen_AOT/aot_oldvideos/S_ILSVRC2015_train_00768002.mp4	0.0	519.1338951587677	2.5000128746032715
93	339.44586396217346	fix_post	2		9	92.0	2.5	/experiments/knapen_AOT/aot_oldvideos/S_ILSVRC2015_train_00768002.mp4	0.0	521.633908033371	0.10001206398010254
94	339.54587602615356	fix_pre	0		120	93.0	2.5	/experiments/knapen_AOT/aot_oldvideos/S_yt-cAFx29wS_xo_130.mp4	0.0	521.7339200973511	1.0000100135803223
94	340.5458860397339	movie	1		202	93.0	2.5	/experiments/knapen_AOT/aot_oldvideos/S_yt-cAFx29wS_xo_130.mp4	0.0	522.7339301109314	2.9417240619659424
94	343.48761010169983	fix_post	2		0	93.0	2.5	/experiments/knapen_AOT/aot_oldvideos/S_yt-cAFx29wS_xo_130.mp4	0.0	525.6756541728973	0.002332925796508789
95	343.48994302749634	fix_pre	0		79	94.0	2.5	/experiments/knapen_AOT/aot_oldvideos/S_yt-58F4cMRhSw8_69.mp4	0.0	525.6779870986938	0.656217098236084
95	344.1461601257324	movie	1		283	94.0	2.5	/experiments/knapen_AOT/aot_oldvideos/S_yt-58F4cMRhSw8_69.mp4	0.0	526.3342041969299	2.499778985977173
95	346.6459391117096	fix_post	2		12	94.0	2.5	/experiments/knapen_AOT/aot_oldvideos/S_yt-58F4cMRhSw8_69.mp4	0.0	528.8339831829071	0.10003805160522461
96	346.7459771633148	fix_pre	0		120	95.0	2.5	/experiments/knapen_AOT/aot_oldvideos/S_yt-5IEO9Gn5fZ4_59.mp4	0.0	528.9340212345123	0.9999949932098389
96	347.74597215652466	movie	1		215	95.0	2.5	/experiments/knapen_AOT/aot_oldvideos/S_yt-5IEO9Gn5fZ4_59.mp4	0.0	529.9340162277222	2.5000228881835938
96	350.24599504470825	fix_post	2		12	95.0	2.5	/experiments/knapen_AOT/aot_oldvideos/S_yt-5IEO9Gn5fZ4_59.mp4	0.0	532.4340391159058	0.10002708435058594
97	350.34602212905884	fix_pre	0		120	96.0	2.5	blank	1.0	532.5340662002563	1.0000269412994385
97	351.3460490703583	movie	1		300	96.0	2.5	blank	1.0	533.5340931415558	2.499998092651367
97	353.84604716300964	fix_post	2		12	96.0	2.5	blank	1.0	536.0340912342072	0.09999489784240723
98	353.94604206085205	fix_pre	0		120	97.0	2.5	/experiments/knapen_AOT/aot_oldvideos/S_yt-gCKmHV5tdSk_59.mp4	0.0	536.1340861320496	1.0000500679016113
98	354.94609212875366	movie	1		244	97.0	2.5	/experiments/knapen_AOT/aot_oldvideos/S_yt-gCKmHV5tdSk_59.mp4	0.0	537.1341361999512	2.7083799839019775
98	357.65447211265564	fix_post	2		0	97.0	2.5	/experiments/knapen_AOT/aot_oldvideos/S_yt-gCKmHV5tdSk_59.mp4	0.0	539.8425161838531	0.002344846725463867
99	357.6568169593811	fix_pre	0		107	98.0	2.5	/experiments/knapen_AOT/aot_oldvideos/S_yt-16eN45838LU_255.mp4	0.0	539.8448610305786	1.364516019821167
99	359.02133297920227	movie	1		151	98.0	2.5	/experiments/knapen_AOT/aot_oldvideos/S_yt-16eN45838LU_255.mp4	0.0	541.2093770503998	2.024827003479004
99	361.0461599826813	fix_post	2		12	98.0	2.5	/experiments/knapen_AOT/aot_oldvideos/S_yt-16eN45838LU_255.mp4	0.0	543.2342040538788	0.1001291275024414
100	361.1462891101837	fix_pre	0		120	99.0	2.5	/experiments/knapen_AOT/aot_oldvideos/S_yt-NVYfkMFUxMk_466.mp4	0.0	543.3343331813812	1.0000309944152832
100	362.146320104599	movie	1		279	99.0	2.5	/experiments/knapen_AOT/aot_oldvideos/S_yt-NVYfkMFUxMk_466.mp4	0.0	544.3343641757965	2.4998650550842285
100	364.6461851596832	fix_post	2		12	99.0	2.5	/experiments/knapen_AOT/aot_oldvideos/S_yt-NVYfkMFUxMk_466.mp4	0.0	546.8342292308807	0.10007286071777344
101	364.746258020401	fix_pre	0		120	100.0	2.5	/experiments/knapen_AOT/aot_oldvideos/S_yt-iuqdW5OLSzc_6.mp4	0.0	546.9343020915985	0.9999549388885498
101	365.74621295928955	movie	1		277	100.0	2.5	/experiments/knapen_AOT/aot_oldvideos/S_yt-iuqdW5OLSzc_6.mp4	0.0	547.9342570304871	2.500033140182495
101	368.24624609947205	fix_post	2		12	100.0	2.5	/experiments/knapen_AOT/aot_oldvideos/S_yt-iuqdW5OLSzc_6.mp4	0.0	550.4342901706696	0.0999898910522461
102	368.3462359905243	fix_pre	0		120	101.0	2.5	/experiments/knapen_AOT/aot_oldvideos/S_yt-T2CzKcU8pHo_17.mp4	0.0	550.5342800617218	1.0000231266021729
102	369.34625911712646	movie	1		280	101.0	2.5	/experiments/knapen_AOT/aot_oldvideos/S_yt-T2CzKcU8pHo_17.mp4	0.0	551.534303188324	2.500030994415283
102	371.84629011154175	fix_post	2		12	101.0	2.5	/experiments/knapen_AOT/aot_oldvideos/S_yt-T2CzKcU8pHo_17.mp4	0.0	554.0343341827393	0.10000300407409668
103	371.94629311561584	fix_pre	0		120	102.0	2.5	/experiments/knapen_AOT/aot_oldvideos/S_yt-z8fEOmzDlD4_21.mp4	0.0	554.1343371868134	0.9999990463256836
103	372.9462921619415	movie	1		242	102.0	2.5	/experiments/knapen_AOT/aot_oldvideos/S_yt-z8fEOmzDlD4_21.mp4	0.0	555.134336233139	2.686231851577759
103	375.6325240135193	fix_post	2		0	102.0	2.5	/experiments/knapen_AOT/aot_oldvideos/S_yt-z8fEOmzDlD4_21.mp4	0.0	557.8205680847168	0.0024039745330810547
104	375.63492798805237	fix_pre	0		110	103.0	2.5	/experiments/knapen_AOT/aot_oldvideos/S_yt-T2Izta7lYZg_111.mp4	0.0	557.8229720592499	0.9114201068878174
104	376.5463480949402	movie	1		272	103.0	2.5	/experiments/knapen_AOT/aot_oldvideos/S_yt-T2Izta7lYZg_111.mp4	0.0	558.7343921661377	2.5000159740448
104	379.046364068985	fix_post	2		12	103.0	2.5	/experiments/knapen_AOT/aot_oldvideos/S_yt-T2Izta7lYZg_111.mp4	0.0	561.2344081401825	0.1000819206237793
105	379.14644598960876	fix_pre	0		120	104.0	2.5	/experiments/knapen_AOT/aot_oldvideos/S_yt-Y-8d31A9JXg_12.mp4	0.0	561.3344900608063	0.9999971389770508
105	380.1464431285858	movie	1		269	104.0	2.5	/experiments/knapen_AOT/aot_oldvideos/S_yt-Y-8d31A9JXg_12.mp4	0.0	562.3344871997833	2.5000100135803223
105	382.64645314216614	fix_post	2		12	104.0	2.5	/experiments/knapen_AOT/aot_oldvideos/S_yt-Y-8d31A9JXg_12.mp4	0.0	564.8344972133636	0.0999610424041748
107	382.7464141845703	stim	0		1205					564.9344582557678	10.041902780532837
107	392.78031611442566	response	0	space						574.9683601856232	
