trial_nr	onset	event_type	phase	response	nr_frames	movie_index	movie_duration	movie_file	blank	onset_abs	duration
0	0.20816993713378906	stim	0		2153					108.08993792533875	17.978536128997803
0	18.17539691925049	response	0	space						126.05716490745544	
1	18.186706066131592	fix_pre	0		121	0.0	2.5	/experiments/knapen_AOT/aot_oldvideos/S_yt-loe3Rqs8TEM_46.mp4	0.0	126.06847405433655	1.0133519172668457
1	19.200057983398438	movie	1		278	0.0	2.5	/experiments/knapen_AOT/aot_oldvideos/S_yt-loe3Rqs8TEM_46.mp4	0.0	127.0818259716034	3.0916860103607178
1	22.291743993759155	fix_post	2		0	0.0	2.5	/experiments/knapen_AOT/aot_oldvideos/S_yt-loe3Rqs8TEM_46.mp4	0.0	130.1735119819641	0.002198934555053711
2	22.29394292831421	fix_pre	0		60	1.0	2.5	/experiments/knapen_AOT/aot_oldvideos/S_yt-Z_irN6cNiD4_148.mp4	0.0	130.17571091651917	0.49778008460998535
2	22.791723012924194	movie	1		289	1.0	2.5	/experiments/knapen_AOT/aot_oldvideos/S_yt-Z_irN6cNiD4_148.mp4	0.0	130.67349100112915	2.5000360012054443
2	25.29175901412964	fix_post	2		12	1.0	2.5	/experiments/knapen_AOT/aot_oldvideos/S_yt-Z_irN6cNiD4_148.mp4	0.0	133.1735270023346	0.10003209114074707
3	25.391791105270386	fix_pre	0		120	2.0	2.5	/experiments/knapen_AOT/aot_oldvideos/S_yt-t9sowxGR_s4_1.mp4	0.0	133.27355909347534	1.0000247955322266
3	26.391815900802612	movie	1		285	2.0	2.5	/experiments/knapen_AOT/aot_oldvideos/S_yt-t9sowxGR_s4_1.mp4	0.0	134.27358388900757	2.5000271797180176
3	28.89184308052063	fix_post	2		12	2.0	2.5	/experiments/knapen_AOT/aot_oldvideos/S_yt-t9sowxGR_s4_1.mp4	0.0	136.7736110687256	0.10048294067382812
4	28.992326021194458	fix_pre	0		120	3.0	2.5	/experiments/knapen_AOT/aot_oldvideos/S_yt-6_SgWsPne7M_11.mp4	0.0	136.8740940093994	0.9995629787445068
4	29.991888999938965	movie	1		280	3.0	2.5	/experiments/knapen_AOT/aot_oldvideos/S_yt-6_SgWsPne7M_11.mp4	0.0	137.87365698814392	2.500019073486328
4	32.49190807342529	fix_post	2		12	3.0	2.5	/experiments/knapen_AOT/aot_oldvideos/S_yt-6_SgWsPne7M_11.mp4	0.0	140.37367606163025	0.09995889663696289
5	32.591866970062256	fix_pre	0		120	4.0	2.5	/experiments/knapen_AOT/aot_oldvideos/S_yt-n12iRXTksXA_65.mp4	0.0	140.4736349582672	1.000096082687378
5	33.591963052749634	movie	1		285	4.0	2.5	/experiments/knapen_AOT/aot_oldvideos/S_yt-n12iRXTksXA_65.mp4	0.0	141.4737310409546	2.499924898147583
5	36.09188795089722	fix_post	2		12	4.0	2.5	/experiments/knapen_AOT/aot_oldvideos/S_yt-n12iRXTksXA_65.mp4	0.0	143.97365593910217	0.1000051498413086
6	36.191893100738525	fix_pre	0		120	5.0	2.5	blank	1.0	144.07366108894348	1.0000967979431152
6	37.19198989868164	movie	1		300	5.0	2.5	blank	1.0	145.0737578868866	2.5000391006469727
6	39.69202899932861	fix_post	2		12	5.0	2.5	blank	1.0	147.57379698753357	0.0999910831451416
7	39.792020082473755	fix_pre	0		120	6.0	2.5	/experiments/knapen_AOT/aot_oldvideos/S_yt-S6N5FyjSFZE_4.mp4	0.0	147.6737880706787	0.9999949932098389
7	40.792015075683594	movie	1		285	6.0	2.5	/experiments/knapen_AOT/aot_oldvideos/S_yt-S6N5FyjSFZE_4.mp4	0.0	148.67378306388855	2.4999608993530273
7	43.29197597503662	fix_post	2		12	6.0	2.5	/experiments/knapen_AOT/aot_oldvideos/S_yt-S6N5FyjSFZE_4.mp4	0.0	151.17374396324158	0.10009908676147461
8	43.392075061798096	fix_pre	0		120	7.0	2.5	/experiments/knapen_AOT/aot_oldvideos/S_yt-sZBe-xmTySc_8.mp4	0.0	151.27384305000305	0.9999630451202393
8	44.392038106918335	movie	1		293	7.0	2.5	/experiments/knapen_AOT/aot_oldvideos/S_yt-sZBe-xmTySc_8.mp4	0.0	152.2738060951233	2.500016927719116
8	46.89205503463745	fix_post	2		9	7.0	2.5	/experiments/knapen_AOT/aot_oldvideos/S_yt-sZBe-xmTySc_8.mp4	0.0	154.7738230228424	0.10008788108825684
9	46.99214291572571	fix_pre	0		120	8.0	2.5	/experiments/knapen_AOT/aot_oldvideos/S_yt-qHUewJuLW4o_19.mp4	0.0	154.87391090393066	0.9999799728393555
9	47.99212288856506	movie	1		289	8.0	2.5	/experiments/knapen_AOT/aot_oldvideos/S_yt-qHUewJuLW4o_19.mp4	0.0	155.87389087677002	2.5000431537628174
9	50.49216604232788	fix_post	2		12	8.0	2.5	/experiments/knapen_AOT/aot_oldvideos/S_yt-qHUewJuLW4o_19.mp4	0.0	158.37393403053284	0.09995889663696289
10	50.592124938964844	fix_pre	0		120	9.0	2.5	/experiments/knapen_AOT/aot_oldvideos/S_yt-YZO4_2yJLWE_1447.mp4	0.0	158.4738929271698	1.0000500679016113
10	51.592175006866455	movie	1		284	9.0	2.5	/experiments/knapen_AOT/aot_oldvideos/S_yt-YZO4_2yJLWE_1447.mp4	0.0	159.4739429950714	2.4999189376831055
10	54.09209394454956	fix_post	2		12	9.0	2.5	/experiments/knapen_AOT/aot_oldvideos/S_yt-YZO4_2yJLWE_1447.mp4	0.0	161.97386193275452	0.1000971794128418
11	54.1921911239624	fix_pre	0		120	10.0	2.5	blank	1.0	162.07395911216736	1.0000228881835938
11	55.192214012145996	movie	1		300	10.0	2.5	blank	1.0	163.07398200035095	2.5000319480895996
11	57.692245960235596	fix_post	2		12	10.0	2.5	blank	1.0	165.57401394844055	0.10001111030578613
12	57.79225707054138	fix_pre	0		120	11.0	2.5	/experiments/knapen_AOT/aot_oldvideos/S_yt-GpVFUM8K0yE_68.mp4	0.0	165.67402505874634	0.9999539852142334
12	58.792211055755615	movie	1		292	11.0	2.5	/experiments/knapen_AOT/aot_oldvideos/S_yt-GpVFUM8K0yE_68.mp4	0.0	166.67397904396057	2.5
12	61.292211055755615	fix_post	2		12	11.0	2.5	/experiments/knapen_AOT/aot_oldvideos/S_yt-GpVFUM8K0yE_68.mp4	0.0	169.17397904396057	0.10005497932434082
13	61.392266035079956	fix_pre	0		120	12.0	2.5	/experiments/knapen_AOT/aot_oldvideos/S_yt-Hs5HF3mTQ7A_9.mp4	0.0	169.2740340232849	1.4918420314788818
13	62.88410806655884	movie	1		5	12.0	2.5	/experiments/knapen_AOT/aot_oldvideos/S_yt-Hs5HF3mTQ7A_9.mp4	0.0	170.7658760547638	2.3664908409118652
13	65.2505989074707	fix_post	2		0	12.0	2.5	/experiments/knapen_AOT/aot_oldvideos/S_yt-Hs5HF3mTQ7A_9.mp4	0.0	173.13236689567566	0.0026111602783203125
14	65.25321006774902	fix_pre	0		89	13.0	2.5	/experiments/knapen_AOT/aot_oldvideos/S_yt-ZmoUDsP2y40_8.mp4	0.0	173.13497805595398	0.7391209602355957
14	65.99233102798462	movie	1		156	13.0	2.5	/experiments/knapen_AOT/aot_oldvideos/S_yt-ZmoUDsP2y40_8.mp4	0.0	173.87409901618958	2.499990940093994
14	68.49232196807861	fix_post	2		12	13.0	2.5	/experiments/knapen_AOT/aot_oldvideos/S_yt-ZmoUDsP2y40_8.mp4	0.0	176.37408995628357	0.1000051498413086
15	68.59232711791992	fix_pre	0		120	14.0	2.5	blank	1.0	176.47409510612488	0.9999768733978271
15	69.59230399131775	movie	1		300	14.0	2.5	blank	1.0	177.4740719795227	2.500059127807617
15	72.09236311912537	fix_post	2		12	14.0	2.5	blank	1.0	179.97413110733032	0.09998679161071777
16	72.19234991073608	fix_pre	0		120	15.0	2.5	blank	1.0	180.07411789894104	1.0000081062316895
16	73.19235801696777	movie	1		300	15.0	2.5	blank	1.0	181.07412600517273	2.50004506111145
16	75.69240307807922	fix_post	2		12	15.0	2.5	blank	1.0	183.57417106628418	0.09996294975280762
17	75.79236602783203	fix_pre	0		120	16.0	2.5	/experiments/knapen_AOT/aot_oldvideos/S_yt-H2y1th4WaWU_51.mp4	0.0	183.674134016037	1.0000150203704834
17	76.79238104820251	movie	1		285	16.0	2.5	/experiments/knapen_AOT/aot_oldvideos/S_yt-H2y1th4WaWU_51.mp4	0.0	184.67414903640747	2.5000669956207275
17	79.29244804382324	fix_post	2		12	16.0	2.5	/experiments/knapen_AOT/aot_oldvideos/S_yt-H2y1th4WaWU_51.mp4	0.0	187.1742160320282	0.10000896453857422
18	79.39245700836182	fix_pre	0		120	17.0	2.5	/experiments/knapen_AOT/aot_oldvideos/S_production_ID_4820331.mp4	0.0	187.27422499656677	1.0000009536743164
18	80.39245796203613	movie	1		121	17.0	2.5	/experiments/knapen_AOT/aot_oldvideos/S_production_ID_4820331.mp4	0.0	188.2742259502411	2.5000269412994385
18	82.89248490333557	fix_post	2		12	17.0	2.5	/experiments/knapen_AOT/aot_oldvideos/S_production_ID_4820331.mp4	0.0	190.77425289154053	0.1002511978149414
19	82.99273610115051	fix_pre	0		120	18.0	2.5	blank	1.0	190.87450408935547	0.9997529983520508
19	83.99248909950256	movie	1		300	18.0	2.5	blank	1.0	191.87425708770752	2.500156879425049
19	86.49264597892761	fix_post	2		12	18.0	2.5	blank	1.0	194.37441396713257	0.09989094734191895
20	86.59253692626953	fix_pre	0		120	19.0	2.5	/experiments/knapen_AOT/aot_oldvideos/S_yt-fAWPQRcrXl0_38.mp4	0.0	194.4743049144745	0.9999949932098389
20	87.59253191947937	movie	1		281	19.0	2.5	/experiments/knapen_AOT/aot_oldvideos/S_yt-fAWPQRcrXl0_38.mp4	0.0	195.47429990768433	2.5000531673431396
20	90.09258508682251	fix_post	2		12	19.0	2.5	/experiments/knapen_AOT/aot_oldvideos/S_yt-fAWPQRcrXl0_38.mp4	0.0	197.97435307502747	0.10000896453857422
21	90.19259405136108	fix_pre	0		120	20.0	2.5	blank	1.0	198.07436203956604	1.0000050067901611
21	91.19259905815125	movie	1		300	20.0	2.5	blank	1.0	199.0743670463562	2.5000369548797607
21	93.692636013031	fix_post	2		12	20.0	2.5	blank	1.0	201.57440400123596	0.10007905960083008
22	93.79271507263184	fix_pre	0		120	21.0	2.5	/experiments/knapen_AOT/aot_oldvideos/S_yt-A-RhzHTz38g_21.mp4	0.0	201.6744830608368	0.9999489784240723
22	94.79266405105591	movie	1		257	21.0	2.5	/experiments/knapen_AOT/aot_oldvideos/S_yt-A-RhzHTz38g_21.mp4	0.0	202.67443203926086	2.500009059906006
22	97.29267311096191	fix_post	2		12	21.0	2.5	/experiments/knapen_AOT/aot_oldvideos/S_yt-A-RhzHTz38g_21.mp4	0.0	205.17444109916687	0.10001182556152344
23	97.39268493652344	fix_pre	0		120	22.0	2.5	blank	1.0	205.2744529247284	1.0000550746917725
23	98.39274001121521	movie	1		300	22.0	2.5	blank	1.0	206.27450799942017	2.5000340938568115
23	100.89277410507202	fix_post	2		12	22.0	2.5	blank	1.0	208.77454209327698	0.10018301010131836
24	100.99295711517334	fix_pre	0		120	23.0	2.5	/experiments/knapen_AOT/aot_oldvideos/S_yt-oypn4VCTu6U_279.mp4	0.0	208.8747251033783	0.9999217987060547
24	101.9928789138794	movie	1		269	23.0	2.5	/experiments/knapen_AOT/aot_oldvideos/S_yt-oypn4VCTu6U_279.mp4	0.0	209.87464690208435	2.5000200271606445
24	104.49289894104004	fix_post	2		9	23.0	2.5	/experiments/knapen_AOT/aot_oldvideos/S_yt-oypn4VCTu6U_279.mp4	0.0	212.374666929245	0.09988713264465332
25	104.59278607368469	fix_pre	0		120	24.0	2.5	/experiments/knapen_AOT/aot_oldvideos/S_ILSVRC2015_train_00661004.mp4	0.0	212.47455406188965	0.9999969005584717
25	105.59278297424316	movie	1		257	24.0	2.5	/experiments/knapen_AOT/aot_oldvideos/S_ILSVRC2015_train_00661004.mp4	0.0	213.47455096244812	2.500175952911377
25	108.09295892715454	fix_post	2		12	24.0	2.5	/experiments/knapen_AOT/aot_oldvideos/S_ILSVRC2015_train_00661004.mp4	0.0	215.9747269153595	0.0998690128326416
26	108.19282793998718	fix_pre	0		120	25.0	2.5	/experiments/knapen_AOT/aot_oldvideos/S_yt-xUPucH7kNAs_178.mp4	0.0	216.07459592819214	1.0000381469726562
26	109.19286608695984	movie	1		275	25.0	2.5	/experiments/knapen_AOT/aot_oldvideos/S_yt-xUPucH7kNAs_178.mp4	0.0	217.0746340751648	2.500016927719116
26	111.69288301467896	fix_post	2		12	25.0	2.5	/experiments/knapen_AOT/aot_oldvideos/S_yt-xUPucH7kNAs_178.mp4	0.0	219.5746510028839	0.0999898910522461
27	111.7928729057312	fix_pre	0		120	26.0	2.5	blank	1.0	219.67464089393616	1.0001661777496338
27	112.79303908348083	movie	1		300	26.0	2.5	blank	1.0	220.6748070716858	2.499871015548706
27	115.29291009902954	fix_post	2		12	26.0	2.5	blank	1.0	223.1746780872345	0.09999489784240723
28	115.39290499687195	fix_pre	0		120	27.0	2.5	/experiments/knapen_AOT/aot_oldvideos/S_yt-e5ua5Pj86E4_140.mp4	0.0	223.2746729850769	1.0000278949737549
28	116.3929328918457	movie	1		272	27.0	2.5	/experiments/knapen_AOT/aot_oldvideos/S_yt-e5ua5Pj86E4_140.mp4	0.0	224.27470088005066	2.5000061988830566
28	118.89293909072876	fix_post	2		12	27.0	2.5	/experiments/knapen_AOT/aot_oldvideos/S_yt-e5ua5Pj86E4_140.mp4	0.0	226.77470707893372	0.1000518798828125
29	118.99299097061157	fix_pre	0		120	28.0	2.5	/experiments/knapen_AOT/aot_oldvideos/S_ILSVRC2015_train_00415002.mp4	0.0	226.87475895881653	1.000169038772583
29	119.99316000938416	movie	1		274	28.0	2.5	/experiments/knapen_AOT/aot_oldvideos/S_ILSVRC2015_train_00415002.mp4	0.0	227.8749279975891	2.4998579025268555
29	122.49301791191101	fix_post	2		12	28.0	2.5	/experiments/knapen_AOT/aot_oldvideos/S_ILSVRC2015_train_00415002.mp4	0.0	230.37478590011597	0.10003209114074707
30	122.59305000305176	fix_pre	0		120	29.0	2.5	/experiments/knapen_AOT/aot_oldvideos/S_yt-a_awONsLFfE_107.mp4	0.0	230.4748179912567	0.9999339580535889
30	123.59298396110535	movie	1		207	29.0	2.5	/experiments/knapen_AOT/aot_oldvideos/S_yt-a_awONsLFfE_107.mp4	0.0	231.4747519493103	2.5000600814819336
30	126.09304404258728	fix_post	2		12	29.0	2.5	/experiments/knapen_AOT/aot_oldvideos/S_yt-a_awONsLFfE_107.mp4	0.0	233.97481203079224	0.1000368595123291
31	126.19308090209961	fix_pre	0		120	30.0	2.5	/experiments/knapen_AOT/aot_oldvideos/S_yt-65cexqxy5lU_35.mp4	0.0	234.07484889030457	1.0000979900360107
31	127.19317889213562	movie	1		275	30.0	2.5	/experiments/knapen_AOT/aot_oldvideos/S_yt-65cexqxy5lU_35.mp4	0.0	235.07494688034058	2.499894142150879
31	129.6930730342865	fix_post	2		12	30.0	2.5	/experiments/knapen_AOT/aot_oldvideos/S_yt-65cexqxy5lU_35.mp4	0.0	237.57484102249146	0.10000205039978027
32	129.79307508468628	fix_pre	0		120	31.0	2.5	/experiments/knapen_AOT/aot_oldvideos/S_yt-JxqSboqaUPY_5.mp4	0.0	237.67484307289124	1.0001428127288818
32	130.79321789741516	movie	1		269	31.0	2.5	/experiments/knapen_AOT/aot_oldvideos/S_yt-JxqSboqaUPY_5.mp4	0.0	238.67498588562012	2.4999051094055176
32	133.29312300682068	fix_post	2		12	31.0	2.5	/experiments/knapen_AOT/aot_oldvideos/S_yt-JxqSboqaUPY_5.mp4	0.0	241.17489099502563	0.10000991821289062
33	133.39313292503357	fix_pre	0		120	32.0	2.5	/experiments/knapen_AOT/aot_oldvideos/S_yt-Y32yFYRmNVU_22.mp4	0.0	241.27490091323853	1.0000391006469727
33	134.39317202568054	movie	1		267	32.0	2.5	/experiments/knapen_AOT/aot_oldvideos/S_yt-Y32yFYRmNVU_22.mp4	0.0	242.2749400138855	2.500072956085205
33	136.89324498176575	fix_post	2		12	32.0	2.5	/experiments/knapen_AOT/aot_oldvideos/S_yt-Y32yFYRmNVU_22.mp4	0.0	244.7750129699707	0.09992408752441406
34	136.99316906929016	fix_pre	0		120	33.0	2.5	/experiments/knapen_AOT/aot_oldvideos/S_yt-AJypa57HKqM_28.mp4	0.0	244.87493705749512	1.0002310276031494
34	137.9934000968933	movie	1		297	33.0	2.5	/experiments/knapen_AOT/aot_oldvideos/S_yt-AJypa57HKqM_28.mp4	0.0	245.87516808509827	2.499957799911499
34	140.4933578968048	fix_post	2		12	33.0	2.5	/experiments/knapen_AOT/aot_oldvideos/S_yt-AJypa57HKqM_28.mp4	0.0	248.37512588500977	0.09987020492553711
35	140.59322810173035	fix_pre	0		120	34.0	2.5	/experiments/knapen_AOT/aot_oldvideos/S_yt-YWfInCviN1s_126.mp4	0.0	248.4749960899353	1.0000388622283936
35	141.59326696395874	movie	1		273	34.0	2.5	/experiments/knapen_AOT/aot_oldvideos/S_yt-YWfInCviN1s_126.mp4	0.0	249.4750349521637	2.500131130218506
35	144.09339809417725	fix_post	2		12	34.0	2.5	/experiments/knapen_AOT/aot_oldvideos/S_yt-YWfInCviN1s_126.mp4	0.0	251.9751660823822	0.09989786148071289
36	144.19329595565796	fix_pre	0		120	35.0	2.5	/experiments/knapen_AOT/aot_oldvideos/S_yt-Uih643A1YtA_110.mp4	0.0	252.07506394386292	0.9999780654907227
36	145.19327402114868	movie	1		270	35.0	2.5	/experiments/knapen_AOT/aot_oldvideos/S_yt-Uih643A1YtA_110.mp4	0.0	253.07504200935364	2.5000360012054443
36	147.69331002235413	fix_post	2		12	35.0	2.5	/experiments/knapen_AOT/aot_oldvideos/S_yt-Uih643A1YtA_110.mp4	0.0	255.57507801055908	0.10001802444458008
37	147.7933280467987	fix_pre	0		120	36.0	2.5	/experiments/knapen_AOT/aot_oldvideos/S_ILSVRC2015_train_00552000.mp4	0.0	255.67509603500366	0.9999949932098389
37	148.79332304000854	movie	1		267	36.0	2.5	/experiments/knapen_AOT/aot_oldvideos/S_ILSVRC2015_train_00552000.mp4	0.0	256.6750910282135	2.5000240802764893
37	151.29334712028503	fix_post	2		12	36.0	2.5	/experiments/knapen_AOT/aot_oldvideos/S_ILSVRC2015_train_00552000.mp4	0.0	259.17511510849	0.10000777244567871
38	151.3933548927307	fix_pre	0		120	37.0	2.5	/experiments/knapen_AOT/aot_oldvideos/S_yt-9PTQ4U4oPUU_243.mp4	0.0	259.27512288093567	1.00006103515625
38	152.39341592788696	movie	1		267	37.0	2.5	/experiments/knapen_AOT/aot_oldvideos/S_yt-9PTQ4U4oPUU_243.mp4	0.0	260.2751839160919	2.5000011920928955
38	154.89341711997986	fix_post	2		12	37.0	2.5	/experiments/knapen_AOT/aot_oldvideos/S_yt-9PTQ4U4oPUU_243.mp4	0.0	262.7751851081848	0.09997987747192383
39	154.99339699745178	fix_pre	0		120	38.0	2.5	/experiments/knapen_AOT/aot_oldvideos/S_yt-VypeVQ7gJ_k_578.mp4	0.0	262.87516498565674	1.0001599788665771
39	155.99355697631836	movie	1		266	38.0	2.5	/experiments/knapen_AOT/aot_oldvideos/S_yt-VypeVQ7gJ_k_578.mp4	0.0	263.8753249645233	2.499890089035034
39	158.4934470653534	fix_post	2		12	38.0	2.5	/experiments/knapen_AOT/aot_oldvideos/S_yt-VypeVQ7gJ_k_578.mp4	0.0	266.37521505355835	0.09999990463256836
40	158.59344696998596	fix_pre	0		120	39.0	2.5	/experiments/knapen_AOT/aot_oldvideos/S_yt-DpLc4e4bpu0_1467.mp4	0.0	266.4752149581909	0.9999871253967285
40	159.5934340953827	movie	1		271	39.0	2.5	/experiments/knapen_AOT/aot_oldvideos/S_yt-DpLc4e4bpu0_1467.mp4	0.0	267.47520208358765	2.5000288486480713
40	162.09346294403076	fix_post	2		12	39.0	2.5	/experiments/knapen_AOT/aot_oldvideos/S_yt-DpLc4e4bpu0_1467.mp4	0.0	269.9752309322357	0.10001206398010254
41	162.19347500801086	fix_pre	0		120	40.0	2.5	/experiments/knapen_AOT/aot_oldvideos/S_yt-sBdvBO-TPNM_8.mp4	0.0	270.0752429962158	1.0000450611114502
41	163.19352006912231	movie	1		208	40.0	2.5	/experiments/knapen_AOT/aot_oldvideos/S_yt-sBdvBO-TPNM_8.mp4	0.0	271.07528805732727	2.50006103515625
41	165.69358110427856	fix_post	2		12	40.0	2.5	/experiments/knapen_AOT/aot_oldvideos/S_yt-sBdvBO-TPNM_8.mp4	0.0	273.5753490924835	0.10000801086425781
42	165.79358911514282	fix_pre	0		120	41.0	2.5	blank	1.0	273.6753571033478	1.0000598430633545
42	166.79364895820618	movie	1		300	41.0	2.5	blank	1.0	274.67541694641113	2.4999849796295166
42	169.2936339378357	fix_post	2		12	41.0	2.5	blank	1.0	277.17540192604065	0.09996914863586426
43	169.39360308647156	fix_pre	0		120	42.0	2.5	/experiments/knapen_AOT/aot_oldvideos/S_yt-4slVHFGPwEs_744.mp4	0.0	277.2753710746765	1.0000009536743164
43	170.39360404014587	movie	1		261	42.0	2.5	/experiments/knapen_AOT/aot_oldvideos/S_yt-4slVHFGPwEs_744.mp4	0.0	278.27537202835083	2.5000360012054443
43	172.89364004135132	fix_post	2		12	42.0	2.5	/experiments/knapen_AOT/aot_oldvideos/S_yt-4slVHFGPwEs_744.mp4	0.0	280.7754080295563	0.09998393058776855
44	172.9936239719391	fix_pre	0		120	43.0	2.5	/experiments/knapen_AOT/aot_oldvideos/S_yt-mOQJwaPQbMg_5.mp4	0.0	280.87539196014404	1.0
44	173.9936239719391	movie	1		271	43.0	2.5	/experiments/knapen_AOT/aot_oldvideos/S_yt-mOQJwaPQbMg_5.mp4	0.0	281.87539196014404	2.500054121017456
44	176.49367809295654	fix_post	2		12	43.0	2.5	/experiments/knapen_AOT/aot_oldvideos/S_yt-mOQJwaPQbMg_5.mp4	0.0	284.3754460811615	0.0999917984008789
45	176.59366989135742	fix_pre	0		120	44.0	2.5	/experiments/knapen_AOT/aot_oldvideos/S_yt-q8mfIumbHuo_84.mp4	0.0	284.4754378795624	1.0000112056732178
45	177.59368109703064	movie	1		273	44.0	2.5	/experiments/knapen_AOT/aot_oldvideos/S_yt-q8mfIumbHuo_84.mp4	0.0	285.4754490852356	2.500053882598877
45	180.09373497962952	fix_post	2		12	44.0	2.5	/experiments/knapen_AOT/aot_oldvideos/S_yt-q8mfIumbHuo_84.mp4	0.0	287.9755029678345	0.10002994537353516
46	180.19376492500305	fix_pre	0		120	45.0	2.5	/experiments/knapen_AOT/aot_oldvideos/S_yt-jovPh9BdlYI_215.mp4	0.0	288.075532913208	1.000020980834961
46	181.193785905838	movie	1		270	45.0	2.5	/experiments/knapen_AOT/aot_oldvideos/S_yt-jovPh9BdlYI_215.mp4	0.0	289.07555389404297	2.499981164932251
46	183.69376707077026	fix_post	2		12	45.0	2.5	/experiments/knapen_AOT/aot_oldvideos/S_yt-jovPh9BdlYI_215.mp4	0.0	291.5755350589752	0.10002589225769043
47	183.79379296302795	fix_pre	0		120	46.0	2.5	/experiments/knapen_AOT/aot_oldvideos/S_yt-jsG6vM9Lkoc_318.mp4	0.0	291.6755609512329	1.0000169277191162
47	184.79380989074707	movie	1		274	46.0	2.5	/experiments/knapen_AOT/aot_oldvideos/S_yt-jsG6vM9Lkoc_318.mp4	0.0	292.675577878952	2.5000240802764893
47	187.29383397102356	fix_post	2		12	46.0	2.5	/experiments/knapen_AOT/aot_oldvideos/S_yt-jsG6vM9Lkoc_318.mp4	0.0	295.1756019592285	0.09996414184570312
48	187.39379811286926	fix_pre	0		120	47.0	2.5	/experiments/knapen_AOT/aot_oldvideos/S_ILSVRC2015_train_00536000.mp4	0.0	295.2755661010742	1.000060796737671
48	188.39385890960693	movie	1		275	47.0	2.5	/experiments/knapen_AOT/aot_oldvideos/S_ILSVRC2015_train_00536000.mp4	0.0	296.2756268978119	2.5000221729278564
48	190.8938810825348	fix_post	2		12	47.0	2.5	/experiments/knapen_AOT/aot_oldvideos/S_ILSVRC2015_train_00536000.mp4	0.0	298.77564907073975	0.0999748706817627
49	190.99385595321655	fix_pre	0		120	48.0	2.5	/experiments/knapen_AOT/aot_oldvideos/S_yt-DfgpLIP0jnk_105.mp4	0.0	298.8756239414215	1.0
49	191.99385595321655	movie	1		280	48.0	2.5	/experiments/knapen_AOT/aot_oldvideos/S_yt-DfgpLIP0jnk_105.mp4	0.0	299.8756239414215	2.5000741481781006
49	194.49393010139465	fix_post	2		12	48.0	2.5	/experiments/knapen_AOT/aot_oldvideos/S_yt-DfgpLIP0jnk_105.mp4	0.0	302.3756980895996	0.09997296333312988
50	194.59390306472778	fix_pre	0		120	49.0	2.5	/experiments/knapen_AOT/aot_oldvideos/S_yt-ePxv64kEqa0_177.mp4	0.0	302.47567105293274	1.0000309944152832
50	195.59393405914307	movie	1		275	49.0	2.5	/experiments/knapen_AOT/aot_oldvideos/S_yt-ePxv64kEqa0_177.mp4	0.0	303.475702047348	2.5000228881835938
50	198.09395694732666	fix_post	2		12	49.0	2.5	/experiments/knapen_AOT/aot_oldvideos/S_yt-ePxv64kEqa0_177.mp4	0.0	305.9757249355316	0.10002303123474121
51	198.1939799785614	fix_pre	0		120	50.0	2.5	/experiments/knapen_AOT/aot_oldvideos/S_yt-Pd3_4Z2tbFU_47.mp4	0.0	306.07574796676636	1.0000340938568115
51	199.1940140724182	movie	1		275	50.0	2.5	/experiments/knapen_AOT/aot_oldvideos/S_yt-Pd3_4Z2tbFU_47.mp4	0.0	307.07578206062317	2.4999868869781494
51	201.69400095939636	fix_post	2		12	50.0	2.5	/experiments/knapen_AOT/aot_oldvideos/S_yt-Pd3_4Z2tbFU_47.mp4	0.0	309.5757689476013	0.10005497932434082
52	201.7940559387207	fix_pre	0		120	51.0	2.5	/experiments/knapen_AOT/aot_oldvideos/S_yt-A1XT1fT1c8w_24.mp4	0.0	309.67582392692566	1.000025987625122
52	202.79408192634583	movie	1		275	51.0	2.5	/experiments/knapen_AOT/aot_oldvideos/S_yt-A1XT1fT1c8w_24.mp4	0.0	310.6758499145508	2.4999940395355225
52	205.29407596588135	fix_post	2		12	51.0	2.5	/experiments/knapen_AOT/aot_oldvideos/S_yt-A1XT1fT1c8w_24.mp4	0.0	313.1758439540863	0.09999203681945801
53	205.3940680027008	fix_pre	0		118	52.0	2.5	blank	1.0	313.27583599090576	1.0000081062316895
53	206.3940761089325	movie	1		300	52.0	2.5	blank	1.0	314.27584409713745	2.5000219345092773
53	208.89409804344177	fix_post	2		12	52.0	2.5	blank	1.0	316.77586603164673	0.09999895095825195
54	208.99409699440002	fix_pre	0		120	53.0	2.5	/experiments/knapen_AOT/aot_oldvideos/S_yt-cILZ_cB3_so_73.mp4	0.0	316.875864982605	1.0000040531158447
54	209.99410104751587	movie	1		284	53.0	2.5	/experiments/knapen_AOT/aot_oldvideos/S_yt-cILZ_cB3_so_73.mp4	0.0	317.8758690357208	2.500041961669922
54	212.4941430091858	fix_post	2		12	53.0	2.5	/experiments/knapen_AOT/aot_oldvideos/S_yt-cILZ_cB3_so_73.mp4	0.0	320.37591099739075	0.10001492500305176
55	212.59415793418884	fix_pre	0		120	54.0	2.5	/experiments/knapen_AOT/aot_oldvideos/S_yt-gbDSSDcRlg4_31.mp4	0.0	320.4759259223938	1.0000081062316895
55	213.59416604042053	movie	1		215	54.0	2.5	/experiments/knapen_AOT/aot_oldvideos/S_yt-gbDSSDcRlg4_31.mp4	0.0	321.4759340286255	2.500051975250244
55	216.09421801567078	fix_post	2		12	54.0	2.5	/experiments/knapen_AOT/aot_oldvideos/S_yt-gbDSSDcRlg4_31.mp4	0.0	323.97598600387573	0.09997200965881348
56	216.1941900253296	fix_pre	0		120	55.0	2.5	/experiments/knapen_AOT/aot_oldvideos/S_yt-MXCxHM_Ms8A_15.mp4	0.0	324.07595801353455	1.0000109672546387
56	217.19420099258423	movie	1		276	55.0	2.5	/experiments/knapen_AOT/aot_oldvideos/S_yt-MXCxHM_Ms8A_15.mp4	0.0	325.0759689807892	2.5000410079956055
56	219.69424200057983	fix_post	2		12	55.0	2.5	/experiments/knapen_AOT/aot_oldvideos/S_yt-MXCxHM_Ms8A_15.mp4	0.0	327.5760099887848	0.0999910831451416
57	219.79423308372498	fix_pre	0		120	56.0	2.5	/experiments/knapen_AOT/aot_oldvideos/S_yt-pB-AcJ71tzA_20.mp4	0.0	327.67600107192993	1.0000410079956055
57	220.79427409172058	movie	1		286	56.0	2.5	/experiments/knapen_AOT/aot_oldvideos/S_yt-pB-AcJ71tzA_20.mp4	0.0	328.67604207992554	2.5000038146972656
57	223.29427790641785	fix_post	2		12	56.0	2.5	/experiments/knapen_AOT/aot_oldvideos/S_yt-pB-AcJ71tzA_20.mp4	0.0	331.1760458946228	0.09999704360961914
58	223.39427495002747	fix_pre	0		120	57.0	2.5	/experiments/knapen_AOT/aot_oldvideos/S_yt-DO1vncSoiJk_58.mp4	0.0	331.2760429382324	1.0000481605529785
58	224.39432311058044	movie	1		287	57.0	2.5	/experiments/knapen_AOT/aot_oldvideos/S_yt-DO1vncSoiJk_58.mp4	0.0	332.2760910987854	2.500011920928955
58	226.8943350315094	fix_post	2		12	57.0	2.5	/experiments/knapen_AOT/aot_oldvideos/S_yt-DO1vncSoiJk_58.mp4	0.0	334.77610301971436	0.09999299049377441
59	226.99432802200317	fix_pre	0		120	58.0	2.5	/experiments/knapen_AOT/aot_oldvideos/S_yt-ChAhBD9LrsU_223.mp4	0.0	334.87609601020813	1.0000109672546387
59	227.9943389892578	movie	1		283	58.0	2.5	/experiments/knapen_AOT/aot_oldvideos/S_yt-ChAhBD9LrsU_223.mp4	0.0	335.87610697746277	2.500023126602173
59	230.49436211585999	fix_post	2		12	58.0	2.5	/experiments/knapen_AOT/aot_oldvideos/S_yt-ChAhBD9LrsU_223.mp4	0.0	338.37613010406494	0.10001182556152344
60	230.5943739414215	fix_pre	0		120	59.0	2.5	/experiments/knapen_AOT/aot_oldvideos/S_yt-P2RwcXMKIbQ_1.mp4	0.0	338.47614192962646	1.0000121593475342
60	231.59438610076904	movie	1		287	59.0	2.5	/experiments/knapen_AOT/aot_oldvideos/S_yt-P2RwcXMKIbQ_1.mp4	0.0	339.476154088974	2.5000219345092773
60	234.09440803527832	fix_post	2		12	59.0	2.5	/experiments/knapen_AOT/aot_oldvideos/S_yt-P2RwcXMKIbQ_1.mp4	0.0	341.9761760234833	0.10004496574401855
61	234.19445300102234	fix_pre	0		120	60.0	2.5	/experiments/knapen_AOT/aot_oldvideos/S_2E67nCgRCGk_75.mp4	0.0	342.0762209892273	0.9999940395355225
61	235.19444704055786	movie	1		283	60.0	2.5	/experiments/knapen_AOT/aot_oldvideos/S_2E67nCgRCGk_75.mp4	0.0	343.0762150287628	2.4999940395355225
61	237.69444108009338	fix_post	2		12	60.0	2.5	/experiments/knapen_AOT/aot_oldvideos/S_2E67nCgRCGk_75.mp4	0.0	345.57620906829834	0.10001301765441895
62	237.7944540977478	fix_pre	0		120	61.0	2.5	/experiments/knapen_AOT/aot_oldvideos/S_yt-2U5u3lLJx5M_7.mp4	0.0	345.67622208595276	1.000018835067749
62	238.79447293281555	movie	1		285	61.0	2.5	/experiments/knapen_AOT/aot_oldvideos/S_yt-2U5u3lLJx5M_7.mp4	0.0	346.6762409210205	2.500033140182495
62	241.29450607299805	fix_post	2		12	61.0	2.5	/experiments/knapen_AOT/aot_oldvideos/S_yt-2U5u3lLJx5M_7.mp4	0.0	349.176274061203	0.1000058650970459
63	241.3945119380951	fix_pre	0		120	62.0	2.5	/experiments/knapen_AOT/aot_oldvideos/S_yt-RL1chIcbTPQ_11.mp4	0.0	349.27627992630005	1.0000131130218506
63	242.39452505111694	movie	1		283	62.0	2.5	/experiments/knapen_AOT/aot_oldvideos/S_yt-RL1chIcbTPQ_11.mp4	0.0	350.2762930393219	2.900054931640625
63	245.29457998275757	fix_post	2		0	62.0	2.5	/experiments/knapen_AOT/aot_oldvideos/S_yt-RL1chIcbTPQ_11.mp4	0.0	353.1763479709625	0.002157926559448242
64	245.29673790931702	fix_pre	0		84	63.0	2.5	/experiments/knapen_AOT/aot_oldvideos/S_yt-u0N1IsXxLM4_103.mp4	0.0	353.178505897522	0.6978302001953125
64	245.99456810951233	movie	1		215	63.0	2.5	/experiments/knapen_AOT/aot_oldvideos/S_yt-u0N1IsXxLM4_103.mp4	0.0	353.8763360977173	2.500027894973755
64	248.49459600448608	fix_post	2		12	63.0	2.5	/experiments/knapen_AOT/aot_oldvideos/S_yt-u0N1IsXxLM4_103.mp4	0.0	356.37636399269104	0.10000205039978027
65	248.59459805488586	fix_pre	0		120	64.0	2.5	/experiments/knapen_AOT/aot_oldvideos/S_yt-VyVvEvP6MRM_124.mp4	0.0	356.4763660430908	1.000011920928955
65	249.59460997581482	movie	1		284	64.0	2.5	/experiments/knapen_AOT/aot_oldvideos/S_yt-VyVvEvP6MRM_124.mp4	0.0	357.4763779640198	2.500040054321289
65	252.0946500301361	fix_post	2		12	64.0	2.5	/experiments/knapen_AOT/aot_oldvideos/S_yt-VyVvEvP6MRM_124.mp4	0.0	359.97641801834106	0.10001397132873535
66	252.19466400146484	fix_pre	0		120	65.0	2.5	/experiments/knapen_AOT/aot_oldvideos/S_yt-GBqXIFjZf8w_28.mp4	0.0	360.0764319896698	0.9999868869781494
66	253.194650888443	movie	1		287	65.0	2.5	/experiments/knapen_AOT/aot_oldvideos/S_yt-GBqXIFjZf8w_28.mp4	0.0	361.07641887664795	2.5000360012054443
66	255.69468688964844	fix_post	2		12	65.0	2.5	/experiments/knapen_AOT/aot_oldvideos/S_yt-GBqXIFjZf8w_28.mp4	0.0	363.5764548778534	0.09998822212219238
67	255.79467511177063	fix_pre	0		120	66.0	2.5	blank	1.0	363.6764430999756	1.000032901763916
67	256.79470801353455	movie	1		300	66.0	2.5	blank	1.0	364.6764760017395	2.5000429153442383
67	259.2947509288788	fix_post	2		12	66.0	2.5	blank	1.0	367.17651891708374	0.10232400894165039
68	259.39707493782043	fix_pre	0		119	67.0	2.5	/experiments/knapen_AOT/aot_oldvideos/S_yt-hjqjWlzPRjY_76.mp4	0.0	367.2788429260254	0.9976999759674072
68	260.39477491378784	movie	1		291	67.0	2.5	/experiments/knapen_AOT/aot_oldvideos/S_yt-hjqjWlzPRjY_76.mp4	0.0	368.2765429019928	2.5000150203704834
68	262.8947899341583	fix_post	2		12	67.0	2.5	/experiments/knapen_AOT/aot_oldvideos/S_yt-hjqjWlzPRjY_76.mp4	0.0	370.7765579223633	0.09998917579650879
69	262.99477910995483	fix_pre	0		120	68.0	2.5	/experiments/knapen_AOT/aot_oldvideos/S_yt-bWXohhodbjg_86.mp4	0.0	370.8765470981598	1.0000147819519043
69	263.99479389190674	movie	1		288	68.0	2.5	/experiments/knapen_AOT/aot_oldvideos/S_yt-bWXohhodbjg_86.mp4	0.0	371.8765618801117	2.50004506111145
69	266.4948389530182	fix_post	2		12	68.0	2.5	/experiments/knapen_AOT/aot_oldvideos/S_yt-bWXohhodbjg_86.mp4	0.0	374.37660694122314	0.09997797012329102
70	266.5948169231415	fix_pre	0		120	69.0	2.5	/experiments/knapen_AOT/aot_oldvideos/S_CHWw361oMSQ_195.mp4	0.0	374.47658491134644	1.0000250339508057
70	267.5948419570923	movie	1		286	69.0	2.5	/experiments/knapen_AOT/aot_oldvideos/S_CHWw361oMSQ_195.mp4	0.0	375.47660994529724	2.500035047531128
70	270.0948770046234	fix_post	2		12	69.0	2.5	/experiments/knapen_AOT/aot_oldvideos/S_CHWw361oMSQ_195.mp4	0.0	377.97664499282837	0.10064291954040527
71	270.1955199241638	fix_pre	0		120	70.0	2.5	/experiments/knapen_AOT/aot_oldvideos/S_yt-cWBQB8CxsVY_69.mp4	0.0	378.0772879123688	0.9993891716003418
71	271.19490909576416	movie	1		223	70.0	2.5	/experiments/knapen_AOT/aot_oldvideos/S_yt-cWBQB8CxsVY_69.mp4	0.0	379.0766770839691	2.500006914138794
71	273.69491600990295	fix_post	2		12	70.0	2.5	/experiments/knapen_AOT/aot_oldvideos/S_yt-cWBQB8CxsVY_69.mp4	0.0	381.5766839981079	0.10000896453857422
72	273.7949249744415	fix_pre	0		120	71.0	2.5	/experiments/knapen_AOT/aot_oldvideos/S_yt-g_RCws799LQ_52.mp4	0.0	381.6766929626465	1.000014066696167
72	274.7949390411377	movie	1		286	71.0	2.5	/experiments/knapen_AOT/aot_oldvideos/S_yt-g_RCws799LQ_52.mp4	0.0	382.67670702934265	2.5000100135803223
72	277.294949054718	fix_post	2		12	71.0	2.5	/experiments/knapen_AOT/aot_oldvideos/S_yt-g_RCws799LQ_52.mp4	0.0	385.176717042923	0.10001993179321289
73	277.39496898651123	fix_pre	0		120	72.0	2.5	/experiments/knapen_AOT/aot_oldvideos/S_ILSVRC2015_train_00611000.mp4	0.0	385.2767369747162	1.0000150203704834
73	278.3949840068817	movie	1		288	72.0	2.5	/experiments/knapen_AOT/aot_oldvideos/S_ILSVRC2015_train_00611000.mp4	0.0	386.27675199508667	2.500063896179199
73	280.8950479030609	fix_post	2		12	72.0	2.5	/experiments/knapen_AOT/aot_oldvideos/S_ILSVRC2015_train_00611000.mp4	0.0	388.77681589126587	0.09996318817138672
74	280.9950110912323	fix_pre	0		120	73.0	2.5	/experiments/knapen_AOT/aot_oldvideos/S_yt-p-kbRhTdyiQ_31.mp4	0.0	388.87677907943726	1.0000128746032715
74	281.99502396583557	movie	1		293	73.0	2.5	/experiments/knapen_AOT/aot_oldvideos/S_yt-p-kbRhTdyiQ_31.mp4	0.0	389.8767919540405	2.500030994415283
74	284.49505496025085	fix_post	2		12	73.0	2.5	/experiments/knapen_AOT/aot_oldvideos/S_yt-p-kbRhTdyiQ_31.mp4	0.0	392.3768229484558	0.1000070571899414
75	284.5950620174408	fix_pre	0		120	74.0	2.5	/experiments/knapen_AOT/aot_oldvideos/S_yt-1VTxnf2hZ0w_675.mp4	0.0	392.47683000564575	1.000020980834961
75	285.59508299827576	movie	1		293	74.0	2.5	/experiments/knapen_AOT/aot_oldvideos/S_yt-1VTxnf2hZ0w_675.mp4	0.0	393.4768509864807	2.5000219345092773
75	288.09510493278503	fix_post	2		12	74.0	2.5	/experiments/knapen_AOT/aot_oldvideos/S_yt-1VTxnf2hZ0w_675.mp4	0.0	395.97687292099	0.1000370979309082
76	288.19514203071594	fix_pre	0		120	75.0	2.5	/experiments/knapen_AOT/aot_oldvideos/S_ILSVRC2015_train_00707000.mp4	0.0	396.0769100189209	1.0000500679016113
76	289.19519209861755	movie	1		266	75.0	2.5	/experiments/knapen_AOT/aot_oldvideos/S_ILSVRC2015_train_00707000.mp4	0.0	397.0769600868225	2.7666738033294678
76	291.961865901947	fix_post	2		0	75.0	2.5	/experiments/knapen_AOT/aot_oldvideos/S_ILSVRC2015_train_00707000.mp4	0.0	399.843633890152	0.0021932125091552734
77	291.9640591144562	fix_pre	0		100	76.0	2.5	/experiments/knapen_AOT/aot_oldvideos/S_yt-D9iwtEHx8M0_20.mp4	0.0	399.84582710266113	0.8310937881469727
77	292.79515290260315	movie	1		284	76.0	2.5	/experiments/knapen_AOT/aot_oldvideos/S_yt-D9iwtEHx8M0_20.mp4	0.0	400.6769208908081	2.5000531673431396
77	295.2952060699463	fix_post	2		12	76.0	2.5	/experiments/knapen_AOT/aot_oldvideos/S_yt-D9iwtEHx8M0_20.mp4	0.0	403.17697405815125	0.10008001327514648
78	295.39528608322144	fix_pre	0		120	77.0	2.5	/experiments/knapen_AOT/aot_oldvideos/S_yt-2wb0b0pdSxU_59.mp4	0.0	403.2770540714264	0.999953031539917
78	296.39523911476135	movie	1		285	77.0	2.5	/experiments/knapen_AOT/aot_oldvideos/S_yt-2wb0b0pdSxU_59.mp4	0.0	404.2770071029663	2.499997854232788
78	298.89523696899414	fix_post	2		12	77.0	2.5	/experiments/knapen_AOT/aot_oldvideos/S_yt-2wb0b0pdSxU_59.mp4	0.0	406.7770049571991	0.10000896453857422
79	298.9952459335327	fix_pre	0		120	78.0	2.5	/experiments/knapen_AOT/aot_oldvideos/S_yt-NqZHX-eOVUA_35.mp4	0.0	406.87701392173767	1.0000159740447998
79	299.9952619075775	movie	1		294	78.0	2.5	/experiments/knapen_AOT/aot_oldvideos/S_yt-NqZHX-eOVUA_35.mp4	0.0	407.87702989578247	2.50003719329834
79	302.49529910087585	fix_post	2		12	78.0	2.5	/experiments/knapen_AOT/aot_oldvideos/S_yt-NqZHX-eOVUA_35.mp4	0.0	410.3770670890808	0.09999299049377441
80	302.59529209136963	fix_pre	0		120	79.0	2.5	blank	1.0	410.4770600795746	1.0000109672546387
80	303.59530305862427	movie	1		300	79.0	2.5	blank	1.0	411.4770710468292	2.5000410079956055
80	306.0953440666199	fix_post	2		12	79.0	2.5	blank	1.0	413.97711205482483	0.10044193267822266
81	306.1957859992981	fix_pre	0		120	80.0	2.5	/experiments/knapen_AOT/aot_oldvideos/S_flickr-thelastdon-8662706978_3.mp4	0.0	414.07755398750305	0.9995589256286621
81	307.19534492492676	movie	1		291	80.0	2.5	/experiments/knapen_AOT/aot_oldvideos/S_flickr-thelastdon-8662706978_3.mp4	0.0	415.0771129131317	2.5000250339508057
81	309.69536995887756	fix_post	2		12	80.0	2.5	/experiments/knapen_AOT/aot_oldvideos/S_flickr-thelastdon-8662706978_3.mp4	0.0	417.5771379470825	0.10001206398010254
82	309.79538202285767	fix_pre	0		120	81.0	2.5	/experiments/knapen_AOT/aot_oldvideos/S_yt-e9ttJw0BUuU_40.mp4	0.0	417.6771500110626	1.0000059604644775
82	310.79538798332214	movie	1		290	81.0	2.5	/experiments/knapen_AOT/aot_oldvideos/S_yt-e9ttJw0BUuU_40.mp4	0.0	418.6771559715271	2.5000150203704834
82	313.2954030036926	fix_post	2		12	81.0	2.5	/experiments/knapen_AOT/aot_oldvideos/S_yt-e9ttJw0BUuU_40.mp4	0.0	421.1771709918976	0.10003304481506348
83	313.3954360485077	fix_pre	0		120	82.0	2.5	/experiments/knapen_AOT/aot_oldvideos/S_yt-Z1ozMh4szTk_13.mp4	0.0	421.27720403671265	1.0000050067901611
83	314.39544105529785	movie	1		288	82.0	2.5	/experiments/knapen_AOT/aot_oldvideos/S_yt-Z1ozMh4szTk_13.mp4	0.0	422.2772090435028	2.50002384185791
83	316.89546489715576	fix_post	2		12	82.0	2.5	/experiments/knapen_AOT/aot_oldvideos/S_yt-Z1ozMh4szTk_13.mp4	0.0	424.7772328853607	0.10000920295715332
84	316.9954741001129	fix_pre	0		120	83.0	2.5	/experiments/knapen_AOT/aot_oldvideos/S_yt-ihCTIoE7qsk_730.mp4	0.0	424.87724208831787	1.0000038146972656
84	317.9954779148102	movie	1		289	83.0	2.5	/experiments/knapen_AOT/aot_oldvideos/S_yt-ihCTIoE7qsk_730.mp4	0.0	425.87724590301514	2.500044107437134
84	320.4955220222473	fix_post	2		12	83.0	2.5	/experiments/knapen_AOT/aot_oldvideos/S_yt-ihCTIoE7qsk_730.mp4	0.0	428.37729001045227	0.09999608993530273
85	320.5955181121826	fix_pre	0		120	84.0	2.5	blank	1.0	428.4772861003876	1.0000147819519043
85	321.5955328941345	movie	1		300	84.0	2.5	blank	1.0	429.4773008823395	2.5000782012939453
85	324.09561109542847	fix_post	2		12	84.0	2.5	blank	1.0	431.9773790836334	0.10030794143676758
86	324.19591903686523	fix_pre	0		118	85.0	2.5	/experiments/knapen_AOT/aot_oldvideos/S_yt-PQYnj2BR17I_16.mp4	0.0	432.0776870250702	0.999661922454834
86	325.19558095932007	movie	1		210	85.0	2.5	/experiments/knapen_AOT/aot_oldvideos/S_yt-PQYnj2BR17I_16.mp4	0.0	433.077348947525	2.5000040531158447
86	327.6955850124359	fix_post	2		12	85.0	2.5	/experiments/knapen_AOT/aot_oldvideos/S_yt-PQYnj2BR17I_16.mp4	0.0	435.57735300064087	0.10002398490905762
87	327.79560899734497	fix_pre	0		120	86.0	2.5	/experiments/knapen_AOT/aot_oldvideos/S_yt-be6x_357tjE_41.mp4	0.0	435.6773769855499	1.000011920928955
87	328.7956209182739	movie	1		283	86.0	2.5	/experiments/knapen_AOT/aot_oldvideos/S_yt-be6x_357tjE_41.mp4	0.0	436.6773889064789	2.500030994415283
87	331.2956519126892	fix_post	2		12	86.0	2.5	/experiments/knapen_AOT/aot_oldvideos/S_yt-be6x_357tjE_41.mp4	0.0	439.17741990089417	0.10007500648498535
88	331.3957269191742	fix_pre	0		120	87.0	2.5	/experiments/knapen_AOT/aot_oldvideos/S_ILSVRC2015_train_00416000.mp4	0.0	439.27749490737915	0.9999480247497559
88	332.39567494392395	movie	1		284	87.0	2.5	/experiments/knapen_AOT/aot_oldvideos/S_ILSVRC2015_train_00416000.mp4	0.0	440.2774429321289	2.500019073486328
88	334.8956940174103	fix_post	2		12	87.0	2.5	/experiments/knapen_AOT/aot_oldvideos/S_ILSVRC2015_train_00416000.mp4	0.0	442.77746200561523	0.10000205039978027
89	334.99569606781006	fix_pre	0		120	88.0	2.5	/experiments/knapen_AOT/aot_oldvideos/S_yt-gbDSSDcRlg4_19.mp4	0.0	442.877464056015	1.000046968460083
89	335.99574303627014	movie	1		287	88.0	2.5	/experiments/knapen_AOT/aot_oldvideos/S_yt-gbDSSDcRlg4_19.mp4	0.0	443.8775110244751	2.4999849796295166
89	338.49572801589966	fix_post	2		12	88.0	2.5	/experiments/knapen_AOT/aot_oldvideos/S_yt-gbDSSDcRlg4_19.mp4	0.0	446.3774960041046	0.10010695457458496
90	338.59583497047424	fix_pre	0		120	89.0	2.5	/experiments/knapen_AOT/aot_oldvideos/S_yt-PDNWrJ2bZ6I_79.mp4	0.0	446.4776029586792	0.9999489784240723
90	339.5957839488983	movie	1		280	89.0	2.5	/experiments/knapen_AOT/aot_oldvideos/S_yt-PDNWrJ2bZ6I_79.mp4	0.0	447.47755193710327	2.4999899864196777
90	342.095773935318	fix_post	2		12	89.0	2.5	/experiments/knapen_AOT/aot_oldvideos/S_yt-PDNWrJ2bZ6I_79.mp4	0.0	449.97754192352295	0.1002650260925293
91	342.1960389614105	fix_pre	0		120	90.0	2.5	/experiments/knapen_AOT/aot_oldvideos/S_yt-iCGU1R75BZo_52.mp4	0.0	450.0778069496155	0.9997689723968506
91	343.1958079338074	movie	1		278	90.0	2.5	/experiments/knapen_AOT/aot_oldvideos/S_yt-iCGU1R75BZo_52.mp4	0.0	451.07757592201233	2.500028133392334
91	345.6958360671997	fix_post	2		12	90.0	2.5	/experiments/knapen_AOT/aot_oldvideos/S_yt-iCGU1R75BZo_52.mp4	0.0	453.57760405540466	0.10000991821289062
92	345.7958459854126	fix_pre	0		120	91.0	2.5	blank	1.0	453.67761397361755	0.9999959468841553
92	346.79584193229675	movie	1		300	91.0	2.5	blank	1.0	454.6776099205017	2.5000641345977783
92	349.29590606689453	fix_post	2		12	91.0	2.5	blank	1.0	457.1776740550995	0.09998703002929688
93	349.3958930969238	fix_pre	0		120	92.0	2.5	/experiments/knapen_AOT/aot_oldvideos/S_ILSVRC2015_train_00768002.mp4	0.0	457.2776610851288	1.0000109672546387
93	350.39590406417847	movie	1		283	92.0	2.5	/experiments/knapen_AOT/aot_oldvideos/S_ILSVRC2015_train_00768002.mp4	0.0	458.2776720523834	2.5000078678131104
93	352.8959119319916	fix_post	2		12	92.0	2.5	/experiments/knapen_AOT/aot_oldvideos/S_ILSVRC2015_train_00768002.mp4	0.0	460.77767992019653	0.10001397132873535
94	352.9959259033203	fix_pre	0		120	93.0	2.5	/experiments/knapen_AOT/aot_oldvideos/S_yt-cAFx29wS_xo_130.mp4	0.0	460.87769389152527	1.0000782012939453
94	353.99600410461426	movie	1		282	93.0	2.5	/experiments/knapen_AOT/aot_oldvideos/S_yt-cAFx29wS_xo_130.mp4	0.0	461.8777720928192	2.4999678134918213
94	356.4959719181061	fix_post	2		12	93.0	2.5	/experiments/knapen_AOT/aot_oldvideos/S_yt-cAFx29wS_xo_130.mp4	0.0	464.37773990631104	0.09999918937683105
95	356.5959711074829	fix_pre	0		120	94.0	2.5	/experiments/knapen_AOT/aot_oldvideos/S_yt-58F4cMRhSw8_69.mp4	0.0	464.47773909568787	1.0000009536743164
95	357.5959720611572	movie	1		275	94.0	2.5	/experiments/knapen_AOT/aot_oldvideos/S_yt-58F4cMRhSw8_69.mp4	0.0	465.4777400493622	2.500056028366089
95	360.0960280895233	fix_post	2		12	94.0	2.5	/experiments/knapen_AOT/aot_oldvideos/S_yt-58F4cMRhSw8_69.mp4	0.0	467.97779607772827	0.10016202926635742
96	360.1961901187897	fix_pre	0		120	95.0	2.5	/experiments/knapen_AOT/aot_oldvideos/S_yt-5IEO9Gn5fZ4_59.mp4	0.0	468.07795810699463	0.9999918937683105
96	361.196182012558	movie	1		271	95.0	2.5	/experiments/knapen_AOT/aot_oldvideos/S_yt-5IEO9Gn5fZ4_59.mp4	0.0	469.07795000076294	2.4999260902404785
96	363.69610810279846	fix_post	2		12	95.0	2.5	/experiments/knapen_AOT/aot_oldvideos/S_yt-5IEO9Gn5fZ4_59.mp4	0.0	471.5778760910034	0.09996581077575684
97	363.7960739135742	fix_pre	0		120	96.0	2.5	blank	1.0	471.6778419017792	1.0000500679016113
97	364.79612398147583	movie	1		300	96.0	2.5	blank	1.0	472.6778919696808	2.499988079071045
97	367.2961120605469	fix_post	2		12	96.0	2.5	blank	1.0	475.17788004875183	0.10001397132873535
98	367.3961260318756	fix_pre	0		120	97.0	2.5	/experiments/knapen_AOT/aot_oldvideos/S_yt-gCKmHV5tdSk_59.mp4	0.0	475.27789402008057	1.000020980834961
98	368.39614701271057	movie	1		282	97.0	2.5	/experiments/knapen_AOT/aot_oldvideos/S_yt-gCKmHV5tdSk_59.mp4	0.0	476.2779150009155	2.500006914138794
98	370.89615392684937	fix_post	2		12	97.0	2.5	/experiments/knapen_AOT/aot_oldvideos/S_yt-gCKmHV5tdSk_59.mp4	0.0	478.7779219150543	0.10000896453857422
99	370.99616289138794	fix_pre	0		120	98.0	2.5	/experiments/knapen_AOT/aot_oldvideos/S_yt-16eN45838LU_255.mp4	0.0	478.8779308795929	0.9999880790710449
99	371.996150970459	movie	1		276	98.0	2.5	/experiments/knapen_AOT/aot_oldvideos/S_yt-16eN45838LU_255.mp4	0.0	479.87791895866394	2.5000760555267334
99	374.4962270259857	fix_post	2		12	98.0	2.5	/experiments/knapen_AOT/aot_oldvideos/S_yt-16eN45838LU_255.mp4	0.0	482.3779950141907	0.09998393058776855
100	374.5962109565735	fix_pre	0		120	99.0	2.5	/experiments/knapen_AOT/aot_oldvideos/S_yt-NVYfkMFUxMk_466.mp4	0.0	482.47797894477844	1.000035047531128
100	375.5962460041046	movie	1		269	99.0	2.5	/experiments/knapen_AOT/aot_oldvideos/S_yt-NVYfkMFUxMk_466.mp4	0.0	483.47801399230957	2.5000030994415283
100	378.09624910354614	fix_post	2		12	99.0	2.5	/experiments/knapen_AOT/aot_oldvideos/S_yt-NVYfkMFUxMk_466.mp4	0.0	485.9780170917511	0.1000669002532959
101	378.19631600379944	fix_pre	0		120	100.0	2.5	/experiments/knapen_AOT/aot_oldvideos/S_yt-iuqdW5OLSzc_6.mp4	0.0	486.0780839920044	1.0000219345092773
101	379.1963379383087	movie	1		271	100.0	2.5	/experiments/knapen_AOT/aot_oldvideos/S_yt-iuqdW5OLSzc_6.mp4	0.0	487.0781059265137	2.5009021759033203
101	381.69724011421204	fix_post	2		8	100.0	2.5	/experiments/knapen_AOT/aot_oldvideos/S_yt-iuqdW5OLSzc_6.mp4	0.0	489.579008102417	0.09906792640686035
102	381.7963080406189	fix_pre	0		120	101.0	2.5	/experiments/knapen_AOT/aot_oldvideos/S_yt-T2CzKcU8pHo_17.mp4	0.0	489.67807602882385	1.000006914138794
102	382.7963149547577	movie	1		270	101.0	2.5	/experiments/knapen_AOT/aot_oldvideos/S_yt-T2CzKcU8pHo_17.mp4	0.0	490.67808294296265	2.500014066696167
102	385.29632902145386	fix_post	2		12	101.0	2.5	/experiments/knapen_AOT/aot_oldvideos/S_yt-T2CzKcU8pHo_17.mp4	0.0	493.1780970096588	0.1000509262084961
103	385.39637994766235	fix_pre	0		120	102.0	2.5	/experiments/knapen_AOT/aot_oldvideos/S_yt-z8fEOmzDlD4_21.mp4	0.0	493.2781479358673	0.9999790191650391
103	386.3963589668274	movie	1		209	102.0	2.5	/experiments/knapen_AOT/aot_oldvideos/S_yt-z8fEOmzDlD4_21.mp4	0.0	494.27812695503235	2.5000181198120117
103	388.8963770866394	fix_post	2		12	102.0	2.5	/experiments/knapen_AOT/aot_oldvideos/S_yt-z8fEOmzDlD4_21.mp4	0.0	496.77814507484436	0.10002803802490234
104	388.9964051246643	fix_pre	0		120	103.0	2.5	/experiments/knapen_AOT/aot_oldvideos/S_yt-T2Izta7lYZg_111.mp4	0.0	496.87817311286926	1.0000028610229492
104	389.99640798568726	movie	1		270	103.0	2.5	/experiments/knapen_AOT/aot_oldvideos/S_yt-T2Izta7lYZg_111.mp4	0.0	497.8781759738922	2.5000150203704834
104	392.49642300605774	fix_post	2		12	103.0	2.5	/experiments/knapen_AOT/aot_oldvideos/S_yt-T2Izta7lYZg_111.mp4	0.0	500.3781909942627	0.10001206398010254
105	392.59643507003784	fix_pre	0		120	104.0	2.5	/experiments/knapen_AOT/aot_oldvideos/S_yt-Y-8d31A9JXg_12.mp4	0.0	500.4782030582428	1.0000269412994385
105	393.5964620113373	movie	1		271	104.0	2.5	/experiments/knapen_AOT/aot_oldvideos/S_yt-Y-8d31A9JXg_12.mp4	0.0	501.47822999954224	2.5000081062316895
105	396.09647011756897	fix_post	2		12	104.0	2.5	/experiments/knapen_AOT/aot_oldvideos/S_yt-Y-8d31A9JXg_12.mp4	0.0	503.9782381057739	0.10001397132873535
107	396.1964840888977	stim	0		1363					504.07825207710266	11.358723878860474
107	406.86345911026	response	0	escape						514.745227098465	
107	407.5468430519104	response	0	space						515.4286110401154	
107	407.5469150543213	response	0	v						515.4286830425262	
